Reference,Bias_Sensor,Bias_val,Throttle_Control,Servo_Control,Voltage,Throttle_A,Throttle_B,Servo,Linear_X,Linear_Y,Linear_Z,Acceleration_X,Acceleration_Y,Acceleration_Z,Angular_X,Angular_Y,Angular_Z
0,Acceleration_Y,0,0.0,1500,12.244999885559082,0.0,0.0,1500,0.0,0.0,0.0,0.275145947933197,-0.14594697952270508,9.388458251953125,0.0002664400089997798,-0.0013322000158950686,0.0002664400089997798
0,Acceleration_Y,0,0.0,1500,12.244999885559082,0.0,0.0,1500,0.0,0.0,0.0,0.29189395904541016,-0.09809551388025284,9.441095352172852,0.0018650800921022892,0.0,0.0002664400089997798
0,Acceleration_Y,0,0.0,1500,12.25100040435791,0.0,0.0,1500,0.0,0.0,0.0,0.29907169938087463,-0.12202125042676926,9.366925239562988,0.0007993200561031699,0.0,0.0005328800179995596
0,Acceleration_Y,0,0.0,1500,12.25100040435791,0.0,0.0,1500,0.0,0.0,0.0,0.24164992570877075,-0.11484352499246597,9.419562339782715,0.0002664400089997798,0.0,0.0
0,Acceleration_Y,0,0.0,1500,12.244999885559082,0.0,0.0,1500,0.0,0.0,0.0,0.265575647354126,-0.1507321298122406,9.364532470703125,0.0,-0.0005328800179995596,0.0018650800921022892
0,Acceleration_Y,0,0.0,1500,12.244999885559082,0.0,0.0,1500,0.0,0.0,0.0,0.2703607976436615,-0.15551728010177612,9.436309814453125,0.0015986401122063398,-0.0007993200561031699,-0.0002664400089997798
0,Acceleration_Y,0,0.0,1500,12.234999656677246,0.0,0.0,1500,0.0,0.0,0.0,0.23447220027446747,-0.13398411870002747,9.345392227172852,0.0010657600359991193,-0.0005328800179995596,0.0
0,Acceleration_Y,0,0.0,1500,12.234999656677246,0.0,0.0,1500,0.0,0.0,0.0,0.27275338768959045,-0.1004880890250206,9.328643798828125,0.0013322000158950686,0.0002664400089997798,0.0005328800179995596
0,Acceleration_Y,0,0.0,1500,12.25,0.0,0.0,1500,0.0,0.0,0.0,0.2440425008535385,-0.11005838215351105,9.393243789672852,0.0005328800179995596,0.0002664400089997798,0.0002664400089997798
0,Acceleration_Y,0,0.0,1500,12.25,0.0,0.0,1500,0.0,0.0,0.0,0.29189395904541016,-0.1196286752820015,9.371710777282715,-0.0002664400089997798,-0.0007993200561031699,-0.0002664400089997798
0,Acceleration_Y,0,0.0,1500,12.23799991607666,0.0,0.0,1500,0.0,0.0,0.0,0.29189395904541016,-0.10766580700874329,9.400421142578125,0.0,-0.0010657600359991193,-0.0007993200561031699
0,Acceleration_Y,0,0.0,1500,12.23799991607666,0.0,0.0,1500,0.0,0.0,0.0,0.29189395904541016,-0.09570293873548508,9.347784996032715,0.0015986401122063398,0.0002664400089997798,0.0002664400089997798
0,Acceleration_Y,0,0.0,1500,12.244000434875488,0.0,0.0,1500,0.0,0.0,0.0,0.2583979368209839,-0.1004880890250206,9.426739692687988,0.0010657600359991193,-0.0013322000158950686,-0.0005328800179995596
0,Acceleration_Y,0,0.0,1500,12.244000434875488,0.0,0.0,1500,0.0,0.0,0.0,0.277538537979126,-0.10288066416978836,9.429132461547852,0.0005328800179995596,-0.0002664400089997798,-0.0002664400089997798
0,Acceleration_Y,0,0.0,1500,12.239999771118164,0.0,0.0,1500,0.0,0.0,0.0,0.2129390388727188,-0.1004880890250206,9.333429336547852,0.0002664400089997798,-0.0007993200561031699,0.0002664400089997798
0,Acceleration_Y,0,0.0,1500,12.239999771118164,0.0,0.0,1500,0.0,0.0,0.0,0.2942865490913391,-0.138769268989563,9.400421142578125,0.0002664400089997798,-0.0010657600359991193,0.0010657600359991193
0,Acceleration_Y,0,0.0,1500,12.23900032043457,0.0,0.0,1500,0.0,0.0,0.0,0.265575647354126,-0.14355440437793732,9.338213920593262,0.0002664400089997798,0.0002664400089997798,-0.0007993200561031699
0,Acceleration_Y,0,0.0,1500,12.23900032043457,0.0,0.0,1500,0.0,0.0,0.0,0.2583979368209839,-0.14116182923316956,9.354962348937988,-0.0002664400089997798,-0.0002664400089997798,0.0
0,Acceleration_Y,0,0.0,1500,12.239999771118164,0.0,0.0,1500,0.0,0.0,0.0,0.3134271204471588,-0.07177720218896866,9.395636558532715,0.0015986401122063398,0.0,-0.0007993200561031699
0.3217524314005757,Acceleration_Y,0,1.5603800238753505,1500,12.239999771118164,0.0,0.0,1500,0.0,0.0,0.0,0.2631830871105194,-0.11245095729827881,9.393243789672852,0.0002664400089997798,0.0,-0.0002664400089997798
0.3217524314005757,Acceleration_Y,0,2.0267571133572257,1500,12.232000350952148,0.0,0.0,1500,0.0,0.0,0.0,0.2942865490913391,-0.12441382557153702,9.369318008422852,0.0,-0.0007993200561031699,-0.0002664400089997798
0.3217524314005757,Acceleration_Y,0,2.7401854076339505,1500,12.232000350952148,0.0,0.0,1500,0.0021739130758720894,0.0,0.0,0.28471624851226807,-0.09331036359071732,9.383673667907715,0.0002664400089997798,-0.0007993200561031699,-0.0002664400089997798
0.3217524314005757,Acceleration_Y,0,3.436790346243855,1500,12.243000030517578,1.5592820644378662,1.5592820644378662,1500,0.007177665137859747,0.0,-0.014999999664723873,0.22729448974132538,-0.1890133023262024,9.357355117797852,0.0,0.0007993200561031699,-0.0002664400089997798
0.3217524314005757,Acceleration_Y,0,4.077728182402246,1500,12.243000030517578,2.0251963138580322,2.0251963138580322,1500,0.021736223429526778,0.0,0.07199999690055847,1.0383769273757935,0.19619102776050568,8.706575393676758,0.012256240472197533,0.056218840181827545,0.043429721146821976
0.3217524314005757,Acceleration_Y,0,4.569290363475446,1500,12.265000343322754,2.7391834259033203,2.7391834259033203,1500,0.061981279079938764,0.0,0.05700000002980232,2.165278911590576,-0.2966791093349457,9.055891036987305,0.01811792142689228,-0.04183107987046242,-0.019450120627880096
0.3217524314005757,Acceleration_Y,0,4.763781593164699,1500,12.265000343322754,3.4342000484466553,3.4342000484466553,1500,0.14900937332553668,0.0,0.00800000037997961,1.4522920846939087,-0.7751938104629517,8.830988883972168,-0.005861680023372173,0.00452948035672307,-0.008259640075266361
0.3217524314005757,Acceleration_Y,0,4.743425197642091,1500,12.279000282287598,4.075945854187012,4.075945854187012,1500,0.24767235317322495,0.0,0.05700000002980232,1.485788106918335,0.04067374765872955,9.022395133972168,-0.00905896071344614,0.018650799989700317,-0.008526080287992954
0.3217524314005757,Acceleration_Y,0,4.623948292977672,1500,12.279000282287598,4.567106246948242,4.567106246948242,1500,0.32296623281287823,0.0,-0.02800000086426735,1.3757297992706299,-0.27275338768959045,9.003253936767578,-0.014121320098638535,0.06101476028561592,-0.015187080949544907
0.3217524314005757,Acceleration_Y,0,4.5294966709880615,1500,12.307999610900879,4.762511730194092,4.762511730194092,1500,0.3542839030434635,0.0,-0.10499999672174454,1.0551248788833618,-0.3206048607826233,9.331036567687988,-0.01332200039178133,0.0077267601154744625,0.0026644000317901373
0.3217524314005757,Acceleration_Y,0,4.389648349023678,1500,12.307999610900879,4.741998672485352,4.741998672485352,1500,0.3731902533659849,0.0,-0.36399999260902405,-0.043066322803497314,1.136472463607788,10.723514556884766,0.04476192221045494,0.0231802798807621,-0.02051588147878647
0.3217524314005757,Acceleration_Y,0,4.194871369065856,1500,12.289999961853027,4.622405529022217,4.622405529022217,1500,0.3926363499601892,0.0,-0.31299999356269836,0.7082017660140991,-1.7274380922317505,9.993779182434082,0.002397960051894188,-0.0077267601154744625,0.006661000195890665
0.3217524314005757,Acceleration_Y,0,4.003544798760819,1500,12.289999961853027,4.5285234451293945,4.5285234451293945,1500,0.40238975449141434,0.0,-0.026000000536441803,0.44980382919311523,-1.220212459564209,9.395636558532715,-0.02158164046704769,0.00452948035672307,0.004263040143996477
0.3217524314005757,Acceleration_Y,0,3.812248217056729,1500,12.27400016784668,4.387955188751221,4.387955188751221,1500,0.406029859851808,0.0,0.07400000095367432,0.8589338660240173,-0.9211407899856567,9.101349830627441,0.06421203911304474,-0.04289684072136879,0.0018650800921022892
0.3217524314005757,Acceleration_Y,0,3.6418523644453096,1500,12.27400016784668,4.19361686706543,4.19361686706543,1500,0.40266344729709325,0.0,0.10100000351667404,0.555077075958252,-1.354196548461914,10.766580581665039,-0.038100920617580414,-0.08073132485151291,0.017585041001439095
0.3217524314005757,Acceleration_Y,0,3.475612159764073,1500,12.251999855041504,4.002319812774658,4.002319812774658,1500,0.3988490290297318,0.0,0.03700000047683716,0.5646473169326782,-1.0048809051513672,8.905158996582031,-0.06980728358030319,0.042363960295915604,0.031173480674624443
0.3217524314005757,Acceleration_Y,0,3.32519010302762,1500,12.251999855041504,3.8117334842681885,3.8117334842681885,1500,0.3934703847931416,0.0,0.06300000101327896,0.1698727160692215,-0.33496028184890747,10.295244216918945,0.08739232271909714,-0.12895695865154266,0.04129820317029953
0.3217524314005757,Acceleration_Y,0,3.2401812570463595,1500,12.251999855041504,3.639864921569824,3.639864921569824,1500,0.37683210665737965,0.0,0.017000000923871994,-0.10766580700874329,-0.41870036721229553,8.510383605957031,-0.026111120358109474,0.014920640736818314,0.009591840207576752
0.3217524314005757,Acceleration_Y,0,3.1614664211686843,1500,12.251999855041504,3.4748034477233887,3.4748034477233887,1500,0.3647683896787418,0.0,-0.33500000834465027,-0.1315915435552597,0.06699205935001373,9.835869789123535,-0.005328800063580275,0.0037301601842045784,0.011723360046744347
0.3217524314005757,Acceleration_Y,0,3.154565701580952,1500,12.248000144958496,3.3239710330963135,3.3239710330963135,1500,0.3442432863322935,0.0,0.05900000035762787,-0.7991195321083069,0.10766580700874329,9.579864501953125,0.020782319828867912,0.03703515976667404,0.010391159914433956
0.3217524314005757,Acceleration_Y,0,3.140716239463551,1500,12.248000144958496,3.23891544342041,3.23891544342041,1500,0.33327987879666965,0.0,-0.3160000145435333,-0.7871567010879517,-0.19858360290527344,9.661211967468262,0.01625283993780613,0.01625283993780613,-0.0007993200561031699
0.3217524314005757,Acceleration_Y,0,3.1727059856619553,1500,12.244999885559082,3.1598901748657227,3.1598901748657227,1500,0.3195281786086574,0.0,0.0020000000949949026,-0.34931573271751404,-0.2129390388727188,9.407599449157715,0.006661000195890665,0.03676871955394745,-0.007193880155682564
0.3217524314005757,Acceleration_Y,0,3.252196837753537,1500,12.244999885559082,3.153087615966797,3.153087615966797,1500,0.3019017574431004,0.0,-0.05900000035762787,-0.32299742102622986,0.11723610013723373,9.055891036987305,0.011190480552613735,0.03703515976667404,0.0010657600359991193
0.3217524314005757,Acceleration_Y,0,3.3501276047172195,1500,12.25100040435791,3.1393189430236816,3.1393189430236816,1500,0.2880028778547015,0.0,-0.33500000834465027,-0.16030243039131165,0.28471624851226807,9.328643798828125,-0.01465420052409172,0.02051588147878647,-0.02504536136984825
0.3217524314005757,Acceleration_Y,0,3.4150054094491322,1500,12.25100040435791,3.1716480255126953,3.1716480255126953,1500,0.288001875400521,0.0,-0.375,0.4474112391471863,-0.6866685748100281,9.596611976623535,0.015187080949544907,-0.010391159914433956,-0.021048760041594505
0.3217524314005757,Acceleration_Y,0,3.478452166835899,1500,12.255000114440918,3.25097918510437,3.25097918510437,1500,0.2905766747482585,0.0,-0.08299999684095383,0.2129390388727188,-0.239257350564003,9.838262557983398,0.018384359776973724,0.014920640736818314,-0.0213152002543211
0.3217524314005757,Acceleration_Y,0,3.5414484256197296,1500,12.255000114440918,3.3496999740600586,3.3496999740600586,1500,0.29246883642618116,0.0,0.04600000008940697,0.41152265667915344,-0.5239735841751099,9.335822105407715,-0.04582768306136131,-0.018650799989700317,-0.006128120236098766
0.3217524314005757,Acceleration_Y,0,3.6199130806525432,1500,12.270999908447266,3.413723945617676,3.413723945617676,1500,0.2901876669260486,0.0,0.02800000086426735,0.7321274876594543,0.04067374765872955,9.271222114562988,-0.034637201577425,-0.0005328800179995596,0.005595240276306868
0.3217524314005757,Acceleration_Y,0,3.6731401995942607,1500,12.270999908447266,3.476783275604248,3.476783275604248,1500,0.2934879407270725,0.0,-0.33500000834465027,0.23686477541923523,0.007177720312029123,9.338213920593262,0.03543652221560478,0.01811792142689228,0.01811792142689228
0.3217524314005757,Acceleration_Y,0,3.7138306262464003,1500,12.274999618530273,3.5392913818359375,3.5392913818359375,1500,0.29875395315246334,0.0,-0.10700000077486038,0.3899894952774048,0.3899894952774048,9.933964729309082,0.07140592485666275,-0.06634356081485748,0.039966002106666565
0.3217524314005757,Acceleration_Y,0,3.7695426187799588,1500,12.274999618530273,3.6177151203155518,3.6177151203155518,1500,0.29880324327348545,0.0,0.10700000077486038,1.3278782367706299,-1.2345678806304932,8.852521896362305,0.026910440996289253,-0.025578241795301437,0.016785720363259315
0.3217524314005757,Acceleration_Y,0,3.7902091204521207,1500,12.274999618530273,3.6722707748413086,3.6722707748413086,1500,0.30519450837773854,0.0,-0.3330000042915344,-0.16508756577968597,0.5144032835960388,10.099052429199219,0.01891724020242691,0.007993199862539768,0.02744332142174244
0.3217524314005757,Acceleration_Y,0,3.8231703077387253,1500,12.274999618530273,3.711482524871826,3.711482524871826,1500,0.3071380934917851,0.0,0.05400000140070915,-0.44262608885765076,0.31581971049308777,11.23073959350586,-0.002397960051894188,-0.0026644000317901373,0.03756804019212723
0.3217524314005757,Acceleration_Y,0,3.8250588544604875,1500,12.253000259399414,3.7677974700927734,3.7677974700927734,1500,0.3138473304339627,0.0,-0.3240000009536743,-0.4067375063896179,-0.14833955466747284,11.405397415161133,-0.01465420052409172,0.033837880939245224,0.014920640736818314
0.3217524314005757,Acceleration_Y,0,3.818516617615151,1500,12.253000259399414,3.7899210453033447,3.7899210453033447,1500,0.3199703479267936,0.0,0.04800000041723251,-0.12441382557153702,0.5933582186698914,8.467317581176758,0.006927440408617258,0.016785720363259315,0.020249441266059875
0.3217524314005757,Acceleration_Y,0,3.82415188321608,1500,12.258000373840332,3.822112560272217,3.822112560272217,1500,0.32064517535349796,0.0,-0.16599999368190765,-0.32299742102622986,0.10527323186397552,7.716049671173096,0.0021315200719982386,0.018384359776973724,0.02158164046704769
0.3217524314005757,Acceleration_Y,0,3.794988999814677,1500,12.258000373840332,3.823815107345581,3.823815107345581,1500,0.32728367880709675,0.0,-0.3179999887943268,-0.2081538885831833,0.26796823740005493,10.008134841918945,-0.05142292007803917,0.0,-0.002397960051894188
0.3217524314005757,Acceleration_Y,0.7791879202030895,3.782966674192531,1500,12.26099967956543,3.817939281463623,3.817939281463623,1500,0.32828854810778557,0.0,0.06300000101327896,0.1890133023262024,0.6069226289891002,8.998469352722168,0.05835036188364029,-0.028775520622730255,0.010124720633029938
0.3217524314005757,Acceleration_Y,0.7791879202030895,3.7737860305522117,1500,12.26099967956543,3.823047637939453,3.823047637939453,1500,0.32731498830176187,0.0,-0.34599998593330383,0.5239735841751099,1.2935912037991284,8.716145515441895,-0.03890024125576019,-0.05435376241803169,0.011723360046744347
0.3217524314005757,Acceleration_Y,0.7791879202030895,3.7352784504108043,1500,12.26200008392334,3.7927048206329346,3.7927048206329346,1500,0.33251323464635946,0.0,-0.27799999713897705,0.7440903782844543,0.8246468181513545,9.728203773498535,-0.06767576187849045,-0.010924040339887142,0.0231802798807621
0.3217524314005757,Acceleration_Y,0.7791879202030895,3.722044121678996,1500,12.26200008392334,3.7807834148406982,3.7807834148406982,1500,0.33111309878669865,0.0,0.006000000052154064,-0.06220691278576851,0.12123018752562975,9.089386940002441,0.04449548199772835,-0.057018160820007324,0.019450120627880096
0.3217524314005757,Acceleration_Y,0.7791879202030895,3.6949991471474446,1500,12.265000343322754,3.7714877128601074,3.7714877128601074,1500,0.3321099698383891,0.0,-0.3310000002384186,0.275145947933197,0.7026255677245853,11.21399211883545,0.043429721146821976,-0.058883242309093475,0.011456920765340328
0.29076705119021423,Acceleration_Y,0.7791879202030895,3.508129036702345,1500,12.265000343322754,3.734011173248291,3.734011173248291,1500,0.3350158526936385,0.0,-0.09200000017881393,0.11005838215351105,0.2552143360279796,7.9074554443359375,0.023446720093488693,-0.04049888253211975,-0.0077267601154744625
0.29076705119021423,Acceleration_Y,0.7791879202030895,3.4488927820296786,1500,12.255999565124512,3.721057653427124,3.721057653427124,1500,0.33229717174319745,0.0,0.03700000047683716,0.5335438847541809,0.16190397988784289,10.481864929199219,0.0026644000317901373,0.013055560179054737,0.019183680415153503
0.29076705119021423,Acceleration_Y,0.7791879202030895,3.343317791523104,1500,12.255999565124512,3.693822145462036,3.693822145462036,1500,0.3343589479683245,0.0,-0.3310000002384186,0.33496028184890747,1.4658564950131177,7.4002299308776855,-0.027709761634469032,0.007193880155682564,-0.015986399725079536
0.29076705119021423,Acceleration_Y,0.7791879202030895,3.270901768693591,1500,12.258999824523926,3.5074360370635986,3.5074360370635986,1500,0.32939462932549646,0.0,0.04600000008940697,0.2560053765773773,0.46576079975593065,8.541487693786621,0.019450120627880096,0.03517008200287819,-0.012522680684924126
0.29076705119021423,Acceleration_Y,0.7791879202030895,3.179508796418175,1500,12.258999824523926,3.4478437900543213,3.4478437900543213,1500,0.3295039433914642,0.0,-0.3490000069141388,0.5120107531547546,-0.11084943760406996,9.977031707763672,0.0013322000158950686,0.007993199862539768,-0.0031972802244126797
0.29076705119021423,Acceleration_Y,0.7791879202030895,3.1219264191269693,1500,12.246999740600586,3.3424103260040283,3.3424103260040283,1500,0.3234230722379632,0.0,0.013000000268220901,0.5024404525756836,0.14754849921691393,9.409991264343262,0.01332200039178133,0.018650799989700317,-0.017851481214165688
0.29076705119021423,Acceleration_Y,0.7791879202030895,3.0720389749472385,1500,12.246999740600586,3.269268751144409,3.269268751144409,1500,0.317548425539623,0.0,-0.2849999964237213,0.34213802218437195,0.41551673661696886,8.826203346252441,-0.009325399994850159,0.021048760041594505,-0.00905896071344614
0.29076705119021423,Acceleration_Y,0.7791879202030895,3.0236947419810147,1500,12.255000114440918,3.1777896881103516,3.1777896881103516,1500,0.3141296449942081,0.0,-0.17499999701976776,-0.33496028184890747,0.6523815269373653,8.680256843566895,0.05994900315999985,-0.031439922749996185,-0.0037301601842045784
0.29076705119021423,Acceleration_Y,0.7791879202030895,2.9936811872789293,1500,12.255000114440918,3.1199188232421875,3.1199188232421875,1500,0.30891497010305086,0.0,0.029999999329447746,-0.2129390388727188,0.9131720389031169,9.142023086547852,-0.029574841260910034,-0.030374161899089813,-0.005328800063580275
0.29076705119021423,Acceleration_Y,0.7791879202030895,2.98617338661768,1500,12.260000228881836,3.0718111991882324,3.0718111991882324,1500,0.3011875050381629,0.0,0.04600000008940697,0.19619102776050568,0.2767474676274059,9.094171524047852,-0.05595240369439125,-0.016519280150532722,0.013588440604507923
0.29076705119021423,Acceleration_Y,0.7791879202030895,3.007881173385503,1500,12.260000228881836,3.022430658340454,3.022430658340454,1500,0.2906019206723127,0.0,-0.13300000131130219,-0.3253899812698364,0.5782117421530483,8.830988883972168,0.008259640075266361,0.01625283993780613,0.01625283993780613
0.29076705119021423,Acceleration_Y,0.7791879202030895,3.053917634299687,1500,12.251999855041504,2.991529941558838,2.991529941558838,1500,0.2794423826541793,0.0,-0.29600000381469727,0.028710881248116493,0.6691295380495784,9.843047142028809,0.04795920103788376,-0.08312927931547165,0.03090704046189785
0.29076705119021423,Acceleration_Y,0.7791879202030895,3.114643588222054,1500,12.251999855041504,2.9847233295440674,2.9847233295440674,1500,0.27033536168489986,0.0,-0.30300000309944153,0.004785147029906511,0.22411084424483751,9.247296333312988,-0.0013322000158950686,-0.010924040339887142,0.02477892115712166
0.29076705119021423,Acceleration_Y,0.7791879202030895,3.1886210136104176,1500,12.246999740600586,3.00561785697937,3.00561785697937,1500,0.2630518257480793,0.0,-0.2590000033378601,-0.06220691278576851,0.3245989407204387,8.663508415222168,0.013055560179054737,0.0031972802244126797,-0.003996599931269884
0.29076705119021423,Acceleration_Y,0.7791879202030895,3.2452126464108995,1500,12.246999740600586,3.051543951034546,3.051543951034546,1500,0.2630375981000369,0.0,-0.3179999887943268,0.48569241166114807,0.819861667861819,7.936166286468506,0.010924040339887142,0.0173186007887125,0.007993199862539768
0.29076705119021423,Acceleration_Y,0.7791879202030895,3.287824789832543,1500,12.251999855041504,3.1123483180999756,3.1123483180999756,1500,0.26712481116251563,0.0,-0.19300000369548798,0.6029285192489624,0.1930074120663402,10.139726638793945,-0.002397960051894188,-0.0077267601154744625,0.017585041001439095
0.29076705119021423,Acceleration_Y,0.7791879202030895,3.3188500588913032,1500,12.251999855041504,3.1872217655181885,3.1872217655181885,1500,0.2723611718044956,0.0,-0.02800000086426735,0.6459948420524597,0.32220638047683214,9.852617263793945,-0.008526080287992954,0.012789120897650719,0.010124720633029938
0.29076705119021423,Acceleration_Y,0.7791879202030895,3.3407385570508383,1500,12.255999565124512,3.2444355487823486,3.2444355487823486,1500,0.2772574113074709,0.0,0.009999999776482582,-0.07177720218896866,1.7146841312550305,10.084697723388672,0.016519280150532722,0.028775520622730255,0.012522680684924126
0.29076705119021423,Acceleration_Y,0.7791879202030895,3.371092208534215,1500,12.255999565124512,3.2852888107299805,3.2852888107299805,1500,0.2780703306829982,0.0,0.02800000086426735,0.3014642596244812,0.4490127886437175,10.087089538574219,0.002397960051894188,0.016519280150532722,0.02744332142174244
0.29076705119021423,Acceleration_Y,0.7791879202030895,3.405775635387577,1500,12.258000373840332,3.31646990776062,3.31646990776062,1500,0.27694580631587773,0.0,-0.20999999344348907,0.004785147029906511,0.5782117421530483,9.216193199157715,0.019450120627880096,0.022913841530680656,-0.005328800063580275
0.29076705119021423,Acceleration_Y,0.7791879202030895,3.4149637889624564,1500,12.258000373840332,3.3386027812957764,3.3386027812957764,1500,0.2812756136165576,0.0,-0.3179999887943268,0.39238205552101135,0.2623920465611217,9.031965255737305,-0.013055560179054737,-0.0026644000317901373,-0.0077267601154744625
0.29076705119021423,Acceleration_Y,0.7791879202030895,3.4137580382088384,1500,12.255999565124512,3.3703999519348145,3.3703999519348145,1500,0.2866418810405732,0.0,-0.020999999716877937,0.3947746157646179,1.0543338681362866,9.630107879638672,0.04023244231939316,-0.04529480263590813,-0.003996599931269884
0.29076705119021423,Acceleration_Y,0.7791879202030895,3.4346896755083653,1500,12.255999565124512,3.404444456100464,3.404444456100464,1500,0.28512520638827626,0.0,0.03200000151991844,0.11005838215351105,-0.08213853586685682,10.225858688354492,-0.05062360316514969,-0.04449548199772835,-0.008259640075266361
0.29076705119021423,Acceleration_Y,0.7791879202030895,3.44626964434017,1500,12.258999824523926,3.4137909412384033,3.4137909412384033,1500,0.28510284440322364,0.0,-0.2590000033378601,0.6029285192489624,0.827039389570832,9.252081871032715,-0.06394559890031815,-0.029841281473636627,0.015986399725079536
0.29076705119021423,Acceleration_Y,0.7791879202030895,3.4362625362275527,1500,12.258999824523926,3.41208815574646,3.41208815574646,1500,0.2897909938506839,0.0,-0.3240000009536743,0.1698727160692215,0.3078509296082256,9.280792236328125,0.029041960835456848,-0.0005328800179995596,0.029574841260910034
0.29076705119021423,Acceleration_Y,0.7791879202030895,3.4445584037039865,1500,12.255999565124512,3.433382272720337,3.433382272720337,1500,0.2893059665968795,0.0,0.02800000086426735,0.9426739811897278,0.750477038954973,9.601397514343262,0.046893440186977386,-0.09165536612272263,0.02930840104818344
0.29076705119021423,Acceleration_Y,0.7791879202030895,3.4417699673409254,1500,12.255999565124512,3.4452974796295166,3.4452974796295166,1500,0.29047877947691797,0.0,-0.28299999237060547,0.21054646372795105,0.49207911144721483,8.981720924377441,0.01198980025947094,-0.05142292007803917,0.010391159914433956
0.29076705119021423,Acceleration_Y,0.7791879202030895,3.4228613491288127,1500,12.255999565124512,3.435084342956543,3.435084342956543,1500,0.2947053134452909,0.0,-0.16200000047683716,-0.4593740999698639,1.0734744692944287,9.433917045593262,-0.011723360046744347,0.009325399994850159,0.010391159914433956
0.29076705119021423,Acceleration_Y,0.7791879202030895,3.424290754027341,1500,12.255999565124512,3.4435954093933105,3.4435954093933105,1500,0.2932786859099181,0.0,0.024000000208616257,0.22729448974132538,0.7193735825620887,7.4361186027526855,0.02744332142174244,-0.007460320368409157,0.02238096110522747
0.29076705119021423,Acceleration_Y,0.7791879202030895,3.4013092383666805,1500,12.246999740600586,3.439365863800049,3.439365863800049,1500,0.29661879310315675,0.0,-0.34200000762939453,-0.14594697952270508,1.1476442540787457,8.704182624816895,0.0026644000317901373,-0.00452948035672307,-0.0002664400089997798
0.29076705119021423,Acceleration_Y,0.7791879202030895,3.37387187804506,1500,12.246999740600586,3.4206550121307373,3.4206550121307373,1500,0.30011559174437596,0.0,-0.05000000074505806,-0.05263661593198776,0.8653205658100841,9.622930526733398,-0.006128120236098766,0.05755104124546051,0.0002664400089997798
0.29076705119021423,Acceleration_Y,0.7791879202030895,3.365725787487338,1500,12.265000343322754,3.4222755432128906,3.4222755432128906,1500,0.2980356463100802,0.0,0.0,0.16030243039131165,1.1285036529206036,8.845344543457031,-0.01891724020242691,0.03543652221560478,-0.01198980025947094
0.29076705119021423,Acceleration_Y,0,3.334110223851859,1500,12.265000343322754,3.4001307487487793,3.4001307487487793,1500,0.3008355857118964,0.0,-0.3400000035762787,0.15551728010177612,0.550291895866394,9.737773895263672,-0.00452948035672307,0.03783448040485382,-0.012256240472197533
0.29076705119021423,Acceleration_Y,0,3.3022390093644316,1500,12.246000289916992,3.371051788330078,3.371051788330078,1500,0.30319678985113163,0.0,0.01899999938905239,0.9307110905647278,-1.1412575244903564,8.505599021911621,-0.022114520892500877,0.027709761634469032,-0.018650799989700317
0.29076705119021423,Acceleration_Y,0,3.293032491724975,1500,12.246000289916992,3.364248275756836,3.364248275756836,1500,0.2997198865783268,0.0,0.026000000536441803,-0.08852522075176239,0.22250933945178986,8.749641418457031,0.029041960835456848,-0.02238096110522747,-0.0007993200561031699
0.29076705119021423,Acceleration_Y,0,3.272356082239933,1500,12.25,3.3330209255218506,3.3330209255218506,1500,0.29925250921709673,0.0,-0.32199999690055847,-0.2966791093349457,-0.3780266046524048,8.385970115661621,-0.044229041785001755,-0.02477892115712166,-0.010124720633029938
0.29076705119021423,Acceleration_Y,0,3.2450430034587803,1500,12.25,3.300694465637207,3.300694465637207,1500,0.3008740048064752,0.0,-0.07400000095367432,-0.10527323186397552,-0.033496029675006866,9.510479927062988,-0.05941612273454666,0.050357162952423096,0.006661000195890665
0.29076705119021423,Acceleration_Y,0,3.2376844389204176,1500,12.25,3.292187452316284,3.292187452316284,1500,0.29796978271661406,0.0,0.03200000151991844,-0.18662072718143463,0.15312470495700836,9.075031280517578,0.022647401317954063,0.021048760041594505,0.037301599979400635
0.29076705119021423,Acceleration_Y,0,3.2370895876028154,1500,12.25,3.271770715713501,3.271770715713501,1500,0.29427155242835473,0.0,-0.18400000035762787,0.011962867341935635,-0.34931573271751404,8.630012512207031,0.03543652221560478,-0.004263040143996477,0.0026644000317901373
0.29076705119021423,Acceleration_Y,0,3.224036181424162,1500,12.248000144958496,3.244018793106079,3.244018793106079,1500,0.29472726754323714,0.0,-0.2720000147819519,-0.11723610013723373,-0.4450186789035797,9.587041854858398,0.019983001053333282,-0.02397960051894188,0.039966002106666565
0.29076705119021423,Acceleration_Y,0,3.2102954916523125,1500,12.248000144958496,3.235513210296631,3.235513210296631,1500,0.2957984077939574,0.0,0.04600000008940697,0.17226529121398926,0.1626949906349182,9.773662567138672,-0.009325399994850159,0.016785720363259315,0.026111120358109474
0.29076705119021423,Acceleration_Y,0,3.2057395884193385,1500,12.243000030517578,3.2358930110931396,3.2358930110931396,1500,0.2945804480843202,0.0,0.013000000268220901,0.677098274230957,0.43784093856811523,9.649249076843262,0.012789120897650719,-0.012789120897650719,0.024246040731668472
0.29076705119021423,Acceleration_Y,0,3.2120655150087125,1500,12.243000030517578,3.222289562225342,3.222289562225342,1500,0.29130660353633575,0.0,-0.17299999296665192,0.4904775619506836,-0.011962867341935635,9.759306907653809,-0.017585041001439095,-0.012522680684924126,0.015719961374998093
0.29076705119021423,Acceleration_Y,0,3.2120474445963025,1500,12.246000289916992,3.20947265625,3.20947265625,1500,0.2905196757034678,0.0,-0.3199999928474426,0.6507799625396729,-0.49765530228614807,9.728203773498535,-0.005328800063580275,0.041564639657735825,-0.003463720204308629
0.29076705119021423,Acceleration_Y,0,3.205033357464158,1500,12.246000289916992,3.2043700218200684,3.2043700218200684,1500,0.29195064277270855,0.0,-0.12700000405311584,0.12919896841049194,0.49765530228614807,10.017704963684082,-0.0021315200719982386,0.005062360316514969,0.00452948035672307
0.29076705119021423,Acceleration_Y,0,3.200239139046757,1500,12.255000114440918,3.2118313312530518,3.2118313312530518,1500,0.29262608546556085,0.0,0.017000000923871994,0.3277825713157654,-0.06699205935001373,9.725811004638672,-0.0026644000317901373,0.03596940264105797,-0.013055560179054737
0.29076705119021423,Acceleration_Y,0,3.2078441847509067,1500,12.255000114440918,3.2118313312530518,3.2118313312530518,1500,0.2903070383265733,0.0,0.026000000536441803,0.4282706677913666,-1.224997639656067,8.144320487976074,-0.029574841260910034,0.014387760311365128,-0.022647401317954063
0.29076705119021423,Acceleration_Y,0,3.2233582123176063,1500,12.258999824523926,3.2043662071228027,3.2043662071228027,1500,0.28693947278438825,0.0,-0.21199999749660492,-0.20336875319480896,0.3636711835861206,8.859699249267578,0.036502283066511154,0.015719961374998093,0.005595240276306868
0.29076705119021423,Acceleration_Y,0,3.237905278405752,1500,12.258999824523926,3.199258327484131,3.199258327484131,1500,0.2851598463615108,0.0,-0.30300000309944153,0.11005838215351105,0.28710880875587463,10.163652420043945,-0.019450120627880096,-0.04103176295757294,-0.009858280420303345
0.29076705119021423,Acceleration_Y,0,3.244241341110138,1500,12.263999938964844,3.2056732177734375,3.2056732177734375,1500,0.28616020000894626,0.0,-0.1860000044107437,0.1698727160692215,-0.12919896841049194,8.883625030517578,-0.04582768306136131,-0.033837880939245224,0.015453520230948925
0.29076705119021423,Acceleration_Y,0,3.244217380188438,1500,12.263999938964844,3.2227067947387695,3.2227067947387695,1500,0.28846729327955134,0.0,-0.00800000037997961,0.3517082929611206,-0.5359364748001099,8.271126747131348,-0.0213152002543211,0.05302156135439873,0.03197279945015907
0.29076705119021423,Acceleration_Y,0,3.251562565560107,1500,12.255000114440918,3.2356605529785156,3.2356605529785156,1500,0.28840081898054026,0.0,0.0,-0.06220691278576851,0.02392573468387127,8.515169143676758,0.06314628571271896,-0.0618140809237957,0.02584468014538288
0.29076705119021423,Acceleration_Y,0,3.2692136083808214,1500,12.255000114440918,3.24246883392334,3.24246883392334,1500,0.2858472205129205,0.0,-0.03500000014901161,-0.26796823740005493,-0.818260133266449,8.347688674926758,0.0026644000317901373,0.031439922749996185,0.012789120897650719
0.29076705119021423,Acceleration_Y,0,3.286707809121877,1500,12.243000030517578,3.242694616317749,3.242694616317749,1500,0.28410303032231615,0.0,-0.27799999713897705,0.43544837832450867,-0.016748014837503433,10.307207107543945,0.03410432115197182,-0.053820881992578506,-0.007460320368409157
0.29076705119021423,Acceleration_Y,0,3.2891446311272223,1500,12.243000030517578,3.2494962215423584,3.2494962215423584,1500,0.2864030233606832,0.0,-0.21199999749660492,0.24164992570877075,-0.12441382557153702,8.957795143127441,-0.018384359776973724,0.012256240472197533,0.003463720204308629
0.29076705119021423,Acceleration_Y,0,3.289413499385721,1500,12.25100040435791,3.2686350345611572,3.2686350345611572,1500,0.28875206142361143,0.0,0.026000000536441803,0.7560532093048096,-0.11484352499246597,9.756915092468262,0.010124720633029938,0.006661000195890665,0.010924040339887142
0.29076705119021423,Acceleration_Y,0,3.3055575376114184,1500,12.25100040435791,3.2856502532958984,3.2856502532958984,1500,0.28674489466208036,0.0,0.02800000086426735,0.14116182923316956,-0.021533161401748657,8.833381652832031,0.005595240276306868,0.021848080679774284,-0.002397960051894188
0.29076705119021423,Acceleration_Y,0,3.323458935198444,1500,12.255000114440918,3.2884249687194824,3.2884249687194824,1500,0.28459124601706115,0.0,-0.3089999854564667,0.12202125042676926,-0.7249497771263123,9.756915092468262,0.0029308400116860867,0.019983001053333282,0.018650799989700317
0.29626640243655317,Acceleration_Y,0,3.3477032862070417,1500,12.255000114440918,3.2884249687194824,3.2884249687194824,1500,0.2876009577247471,0.0,-0.34200000762939453,0.6316394209861755,-0.019140588119626045,9.651641845703125,-0.0005328800179995596,0.004795920103788376,0.0037301601842045784
0.29626640243655317,Acceleration_Y,0,3.351272449412138,1500,12.263999938964844,3.304466724395752,3.304466724395752,1500,0.29047459894326744,0.0,0.009999999776482582,0.5670399069786072,-0.011962867341935635,8.615656852722168,0.0005328800179995596,0.023446720093488693,0.007460320368409157
0.29626640243655317,Acceleration_Y,0,3.3771212145387826,1500,12.263999938964844,3.321500062942505,3.321500062942505,1500,0.28830320114663066,0.0,0.006000000052154064,0.11723610013723373,0.1890133023262024,9.204230308532715,0.029041960835456848,0.02397960051894188,0.012522680684924126
0.29626640243655317,Acceleration_Y,0,3.4035420090252693,1500,12.267000198364258,3.346165180206299,3.346165180206299,1500,0.2861952480876211,0.0,-0.289000004529953,-0.21772418916225433,-0.6531725525856018,8.307015419006348,0.033837880939245224,-0.0029308400116860867,-0.010124720633029938
0.29626640243655317,Acceleration_Y,0,3.4110441988444524,1500,12.267000198364258,3.3495724201202393,3.3495724201202393,1500,0.28897240652734263,0.0,-0.3160000145435333,0.11484352499246597,0.12919896841049194,9.369318008422852,-0.04529480263590813,-0.01332200039178133,-0.0037301601842045784
0.29626640243655317,Acceleration_Y,0,3.410238878795144,1500,12.265000343322754,3.376281976699829,3.376281976699829,1500,0.2929806523186134,0.0,0.020999999716877937,0.8565413355827332,0.016748014837503433,8.933869361877441,-0.04902496188879013,0.009591840207576752,0.003996599931269884
0.29626640243655317,Acceleration_Y,0,3.4284050525505245,1500,12.265000343322754,3.401834011077881,3.401834011077881,1500,0.29142045794947924,0.0,0.0,-0.12919896841049194,-0.5239735841751099,9.302326202392578,0.04289684072136879,-0.023446720093488693,0.01891724020242691
0.29626640243655317,Acceleration_Y,0,3.4195417934094627,1500,12.258999824523926,3.410385847091675,3.410385847091675,1500,0.295238912415268,0.0,-0.2759999930858612,0.43784093856811523,-0.15312470495700836,10.063163757324219,0.010924040339887142,-0.08259640634059906,0.015986399725079536
0.29626640243655317,Acceleration_Y,0,3.4082963456489903,1500,12.258999824523926,3.4086830615997314,3.4086830615997314,1500,0.29866406691273883,0.0,0.052000001072883606,0.34931573271751404,0.14833955466747284,10.388554573059082,0.010924040339887142,-0.05142292007803917,-0.0026644000317901373
0.29626640243655317,Acceleration_Y,0,3.4182821040069595,1500,12.258000373840332,3.4271326065063477,3.4271326065063477,1500,0.296057852288375,0.0,0.024000000208616257,0.39955976605415344,0.13637669384479523,9.094171524047852,-0.007993199862539768,0.005861680023372173,0.01971656084060669
0.29626640243655317,Acceleration_Y,0,3.399860095615215,1500,12.258000373840332,3.4186201095581055,3.4186201095581055,1500,0.2995230522164989,0.0,-0.3070000112056732,0.8661116361618042,0.4330558180809021,10.670877456665039,0.003463720204308629,-0.012256240472197533,0.0029308400116860867
0.29626640243655317,Acceleration_Y,0,3.387106244318529,1500,12.25,3.4061806201934814,3.4061806201934814,1500,0.3012133545616631,0.0,0.039000000804662704,0.41152265667915344,0.14116182923316956,10.012920379638672,-0.0173186007887125,-0.003996599931269884,0.018384359776973724
0.29626640243655317,Acceleration_Y,0,3.3904083466124915,1500,12.25,3.416388988494873,3.416388988494873,1500,0.29851689075674315,0.0,-0.10700000077486038,-0.25361278653144836,-0.055029191076755524,9.398028373718262,0.004263040143996477,0.0231802798807621,0.018384359776973724
0.29626640243655317,Acceleration_Y,0,3.368247631893253,1500,12.25100040435791,3.397951126098633,3.397951126098633,1500,0.30159762801035706,0.0,-0.33799999952316284,0.07416977733373642,0.9426739811897278,9.816729545593262,0.02238096110522747,-0.008259640075266361,0.016519280150532722
0.29626640243655317,Acceleration_Y,0,3.361685151847363,1500,12.25100040435791,3.386040210723877,3.386040210723877,1500,0.300985119720066,0.0,0.01899999938905239,-0.15312470495700836,-0.24643507599830627,9.807158470153809,-0.010124720633029938,0.03330500051379204,0.006927440408617258
0.29626640243655317,Acceleration_Y,0,3.3644844190120797,1500,12.241999626159668,3.388653516769409,3.388653516769409,1500,0.2981176313280568,0.0,-0.13300000131130219,0.6005359292030334,0.2703607976436615,9.338213920593262,0.010391159914433956,0.002397960051894188,0.0
0.29626640243655317,Acceleration_Y,0,3.3481910583753915,1500,12.241999626159668,3.3665499687194824,3.3665499687194824,1500,0.3001460427129839,0.0,-0.3269999921321869,0.09570293873548508,1.1460427045822144,9.165948867797852,0.02051588147878647,-0.031173480674624443,0.01198980025947094
0.29626640243655317,Acceleration_Y,0,3.3374471462347914,1500,12.251999855041504,3.3607914447784424,3.3607914447784424,1500,0.30089625626510014,0.0,0.029999999329447746,0.10527323186397552,-0.1698727160692215,9.412384033203125,-0.037301599979400635,-0.023446720093488693,-0.015986399725079536
0.29626640243655317,Acceleration_Y,0,3.338488174707843,1500,12.251999855041504,3.3624932765960693,3.3624932765960693,1500,0.2986573450973434,0.0,-0.026000000536441803,0.18662072718143463,-0.8565413355827332,10.233036994934082,-0.057018160820007324,0.034637201577425,0.009591840207576752
0.29626640243655317,Acceleration_Y,0,3.324769453726298,1500,12.234000205993652,3.347358465194702,3.347358465194702,1500,0.3000068420172166,0.0,-0.2849999964237213,0.1507321298122406,0.009570294059813023,9.261651992797852,0.06287984549999237,0.0029308400116860867,0.010391159914433956
0.29626640243655317,Acceleration_Y,0,3.30868794602045,1500,12.234000205993652,3.3354642391204834,3.3354642391204834,1500,0.3018116690280147,0.0,0.05900000035762787,0.679490864276886,-0.08852522075176239,8.469710350036621,0.006661000195890665,0.02238096110522747,0.0015986401122063398
0.29626640243655317,Acceleration_Y,0,3.313708011950404,1500,12.267000198364258,3.337646245956421,3.337646245956421,1500,0.29850138460119185,0.0,0.052000001072883606,0.22729448974132538,-0.12202125042676926,9.876543045043945,-0.011723360046744347,-0.010124720633029938,0.0021315200719982386
0.29626640243655317,Acceleration_Y,0,3.3086254761385487,1500,12.267000198364258,3.322312593460083,3.322312593460083,1500,0.2979662726954623,0.0,-0.3109999895095825,0.39955976605415344,-0.3373528718948364,9.419562339782715,-0.0021315200719982386,0.022913841530680656,0.006927440408617258
0.29626640243655317,Acceleration_Y,0,3.297017419419846,1500,12.267999649047852,3.30724835395813,3.30724835395813,1500,0.29948420179850427,0.0,-0.09000000357627869,0.5335438847541809,0.17465786635875702,8.742463111877441,-0.002397960051894188,0.023713160306215286,0.014121320098638535
0.29626640243655317,Acceleration_Y,0,3.297214256018939,1500,12.267999649047852,3.3123600482940674,3.3123600482940674,1500,0.2982004521870582,0.0,0.03700000047683716,0.46176669001579285,-0.7704086899757385,9.670782089233398,0.009858280420303345,0.009591840207576752,0.0
0.29626640243655317,Acceleration_Y,0,3.3047195709577464,1500,12.260000228881836,3.3067944049835205,3.3067944049835205,1500,0.2955442004544177,0.0,-0.2280000001192093,0.4832998514175415,0.3828117549419403,9.266437530517578,0.014121320098638535,0.031439922749996185,0.013854880817234516
0.29626640243655317,Acceleration_Y,0,3.2977337133880353,1500,12.260000228881836,3.2965779304504395,3.2965779304504395,1500,0.29688132886636537,0.0,-0.3179999887943268,0.3660637438297272,-0.02631830796599388,9.642070770263672,0.0002664400089997798,-0.0005328800179995596,0.019183680415153503
0.29626640243655317,Acceleration_Y,0,3.291384364484924,1500,12.26099967956543,3.296846628189087,3.296846628189087,1500,0.29812633056249666,0.0,0.04100000113248825,0.44262608885765076,-0.2201167643070221,9.701885223388672,0.012522680684924126,0.012789120897650719,0.015453520230948925
0.29626640243655317,Acceleration_Y,0,3.3010826978365566,1500,12.26099967956543,3.3036582469940186,3.3036582469940186,1500,0.295469319255716,0.0,0.03500000014901161,-0.09091779589653015,0.954636812210083,9.555938720703125,0.041564639657735825,-0.002397960051894188,0.02477892115712166
0.29626640243655317,Acceleration_Y,0,3.312080144434477,1500,12.24899959564209,3.295321226119995,3.295321226119995,1500,0.2931339748047791,0.0,-0.3330000042915344,-0.3899894952774048,-0.3756340444087982,10.266532897949219,0.00905896071344614,0.010924040339887142,0.005861680023372173
0.29626640243655317,Acceleration_Y,0,3.312395961514684,1500,12.24899959564209,3.290217399597168,3.290217399597168,1500,0.2941365736286891,0.0,-0.26499998569488525,0.17944301664829254,0.27993109822273254,8.807063102722168,-0.04795920103788376,-0.07060660421848297,-0.010124720633029938
0.29626640243655317,Acceleration_Y,0,3.3081251418655233,1500,12.24899959564209,3.300424814224243,3.300424814224243,1500,0.29617072265756533,0.0,0.0430000014603138,0.7871567010879517,-0.057421762496232986,9.637286186218262,-0.08019844442605972,-0.026377560570836067,-0.0010657600359991193
0.29626640243655317,Acceleration_Y,0,3.3215952180073214,1500,12.24899959564209,3.3106322288513184,3.3106322288513184,1500,0.29377327383979057,0.0,0.020999999716877937,-0.2823236584663391,-0.014355440624058247,8.936262130737305,0.05142292007803917,-0.027976201847195625,0.036502283066511154
0.29626640243655317,Acceleration_Y,0,3.3265327385162324,1500,12.263999938964844,3.3112800121307373,3.3112800121307373,1500,0.2935161461711469,0.0,-0.3089999854564667,-0.021533161401748657,-0.478514701128006,10.127763748168945,0.005861680023372173,-0.05222224071621895,0.024246040731668472
0.29626640243655317,Acceleration_Y,0,3.3246996171830556,1500,12.263999938964844,3.3061699867248535,3.3061699867248535,1500,0.2951276022674535,0.0,-0.05900000035762787,0.41152265667915344,-0.03588860109448433,9.802373886108398,0.009591840207576752,0.007993199862539768,0.0018650800921022892
0.29626640243655317,Acceleration_Y,0,3.331155058244678,1500,12.270999908447266,3.3199872970581055,3.3199872970581055,1500,0.2945916362923451,0.0,0.05900000035762787,0.10766580700874329,-0.15312470495700836,9.201837539672852,0.013854880817234516,0.01065760012716055,0.02664400078356266
0.29626640243655317,Acceleration_Y,0,3.3441558093642705,1500,12.270999908447266,3.3251001834869385,3.3251001834869385,1500,0.2925982573693941,0.0,-0.22599999606609344,0.2560053765773773,-0.14833955466747284,8.524739265441895,-0.0029308400116860867,0.021848080679774284,0.005861680023372173
0.29626640243655317,Acceleration_Y,0,3.343805232902432,1500,12.260000228881836,3.323822259902954,3.323822259902954,1500,0.2940426738163268,0.0,-0.33500000834465027,0.3971672058105469,-0.35649344325065613,9.144415855407715,-0.026377560570836067,0.003463720204308629,-0.008526080287992954
0.29626640243655317,Acceleration_Y,0,3.340179219014111,1500,12.260000228881836,3.3306334018707275,3.3306334018707275,1500,0.29606029513990095,0.0,0.04100000113248825,0.3828117549419403,0.4904775619506836,8.627619743347168,-0.002397960051894188,0.041564639657735825,0.0077267601154744625
0.29626640243655317,Acceleration_Y,0,3.3512376866226563,1500,12.258999824523926,3.3422799110412598,3.3422799110412598,1500,0.29420873392159075,0.0,-0.013000000268220901,-0.17226529121398926,0.6340319514274597,9.996171951293945,0.021048760041594505,0.02930840104818344,-0.014920640736818314
0.29626640243655317,Acceleration_Y,0,3.3655772027693502,1500,12.258999824523926,3.3422799110412598,3.3422799110412598,1500,0.29190150830957207,0.0,-0.33799999952316284,0.3780266046524048,0.28710880875587463,9.326251029968262,-0.0002664400089997798,0.026111120358109474,-0.013588440604507923
0.29626640243655317,Acceleration_Y,0,3.3626081699536727,1500,12.267999649047852,3.3396220207214355,3.3396220207214355,1500,0.29415675701316,0.0,-0.31299999356269836,0.3062494099140167,-1.3924777507781982,9.326251029968262,-0.028509080410003662,0.019183680415153503,-0.03410432115197182
0.29626640243655317,Acceleration_Y,0,3.360190059205271,1500,12.267999649047852,3.3498454093933105,3.3498454093933105,1500,0.29600672207402345,0.0,0.05000000074505806,-0.23447220027446747,-0.83979332447052,9.455450057983398,0.00452948035672307,0.019183680415153503,-0.022913841530680656
0.29626640243655317,Acceleration_Y,0,3.375452737385539,1500,12.251999855041504,3.364194869995117,3.364194869995117,1500,0.29328450308529663,0.0,-0.004000000189989805,0.4474112391471863,-0.08374007046222687,9.115705490112305,0.017585041001439095,-0.059682562947273254,-0.008259640075266361
0.29626640243655317,Acceleration_Y,0,3.3743528080098057,1500,12.251999855041504,3.3607914447784424,3.3607914447784424,1500,0.2944461795499605,0.0,-0.30300000309944153,0.7034165859222412,-0.4832998514175415,9.488946914672852,-0.03250567987561226,-0.04183107987046242,0.010924040339887142
0.29626640243655317,Acceleration_Y,0,3.3652520379882156,1500,12.255000114440918,3.358210563659668,3.358210563659668,1500,0.2973585228463207,0.0,-0.013000000268220901,0.20336875319480896,0.06699205935001373,8.876447677612305,0.022647401317954063,-0.004795920103788376,0.03090704046189785
0.29626640243655317,Acceleration_Y,0,3.3734533488312253,1500,12.255000114440918,3.3735291957855225,3.3735291957855225,1500,0.29564141083868734,0.0,0.026000000536441803,0.30385681986808777,-0.08852522075176239,10.711551666259766,0.0031972802244126797,-0.051156483590602875,0.020782319828867912
0.29765699701820375,Acceleration_Y,0,3.3771192776944465,1500,12.258000373840332,3.372652769088745,3.372652769088745,1500,0.29628309226906646,0.0,-0.2980000078678131,0.4402335286140442,-0.31103456020355225,9.098957061767578,0.019983001053333282,-0.016785720363259315,0.029041960835456848
0.29765699701820375,Acceleration_Y,0,3.368064809924318,1500,12.258000373840332,3.364140033721924,3.364140033721924,1500,0.2986639125087174,0.0,-0.04800000041723251,0.18422816693782806,-0.13637669384479523,9.407599449157715,0.01971656084060669,-0.008792520500719547,0.021848080679774284
0.29765699701820375,Acceleration_Y,0,3.3756798705304543,1500,12.256999969482422,3.372377395629883,3.372377395629883,1500,0.29701932611778165,0.0,0.00800000037997961,0.13637669384479523,0.15551728010177612,9.381280899047852,0.010924040339887142,-0.008526080287992954,0.020249441266059875
0.29765699701820375,Acceleration_Y,0,3.3798592406881522,1500,12.256999969482422,3.375782012939453,3.375782012939453,1500,0.2961821279484481,0.0,-0.35499998927116394,-0.09809551388025284,0.09809551388025284,10.725907325744629,-0.004263040143996477,-0.021048760041594505,0.015719961374998093
0.29765699701820375,Acceleration_Y,0,3.371896595789597,1500,12.255999565124512,3.366995334625244,3.366995334625244,1500,0.2983700404761922,0.0,-0.16599999368190765,0.021533161401748657,-0.3947746157646179,8.799885749816895,0.0029308400116860867,0.02744332142174244,0.005595240276306868
0.29765699701820375,Acceleration_Y,0,3.378884270755593,1500,12.255999565124512,3.3738043308258057,3.3738043308258057,1500,0.2969594342903669,0.0,0.013000000268220901,-0.21054646372795105,-0.2583979368209839,8.938654899597168,0.0077267601154744625,0.01065760012716055,0.01198980025947094
0.29765699701820375,Acceleration_Y,0,3.389633520761634,1500,12.260000228881836,3.3783111572265625,3.3783111572265625,1500,0.2948337462265616,0.0,-0.3089999854564667,0.2129390388727188,-0.21772418916225433,9.984209060668945,-0.005062360316514969,0.015719961374998093,-0.011723360046744347
0.29765699701820375,Acceleration_Y,0,3.3854896087762243,1500,12.260000228881836,3.369797468185425,3.369797468185425,1500,0.2966474733010686,0.0,-0.3070000112056732,0.34931573271751404,-0.3828117549419403,9.783232688903809,0.0031972802244126797,0.009325399994850159,-0.010924040339887142
0.29765699701820375,Acceleration_Y,0,3.3862920770566483,1500,12.23900032043457,3.377624273300171,3.377624273300171,1500,0.29724920348946915,0.0,0.06300000101327896,0.5670399069786072,0.08852522075176239,9.338213920593262,0.034903641790151596,0.031173480674624443,-0.010391159914433956
0.29765699701820375,Acceleration_Y,0,3.399570535114481,1500,12.23900032043457,3.3878233432769775,3.3878233432769775,1500,0.29480023111602266,0.0,-0.1770000010728836,0.7728012204170227,-0.552684485912323,9.261651992797852,-0.010124720633029938,-0.07380387932062149,-0.010124720633029938
0.29765699701820375,Acceleration_Y,0,3.3953153876494087,1500,12.248000144958496,3.383509874343872,3.383509874343872,1500,0.2965996283884767,0.0,-0.3400000035762787,-0.21772418916225433,0.15312470495700836,9.369318008422852,-0.052755121141672134,-0.02158164046704769,-0.0031972802244126797
0.29765699701820375,Acceleration_Y,0,3.3862390224082537,1500,12.248000144958496,3.3852109909057617,3.3852109909057617,1500,0.2992584102054771,0.0,0.04600000008940697,0.4067375063896179,-0.22490191459655762,8.553450584411621,0.053820881992578506,-0.014920640736818314,0.02238096110522747
0.29765699701820375,Acceleration_Y,0,3.392708643189293,1500,12.258000373840332,3.3981900215148926,3.3981900215148926,1500,0.2976202469178871,0.0,0.014999999664723873,0.11245095729827881,0.15312470495700836,9.417169570922852,0.019983001053333282,-0.03623584285378456,0.027176881209015846
0.29765699701820375,Acceleration_Y,0,3.3829364257149117,1500,12.258000373840332,3.394785165786743,3.394785165786743,1500,0.2993825581237094,0.0,-0.2980000078678131,0.29189395904541016,-0.19858360290527344,8.462532043457031,0.005062360316514969,-0.03170635923743248,0.008792520500719547
0.29765699701820375,Acceleration_Y,0,3.369769424933684,1500,12.244999885559082,3.3843817710876465,3.3843817710876465,1500,0.3015873686280579,0.0,0.07599999755620956,-0.004785147029906511,-0.4474112391471863,9.630107879638672,-0.012256240472197533,0.01332200039178133,0.021848080679774284
0.29765699701820375,Acceleration_Y,0,3.3736016160715554,1500,12.244999885559082,3.3911845684051514,3.3911845684051514,1500,0.2993369440846437,0.0,0.00800000037997961,0.4593740999698639,0.04785146936774254,8.759211540222168,0.006927440408617258,-0.004795920103788376,0.020782319828867912
0.29765699701820375,Acceleration_Y,0,3.3611298366424656,1500,12.253999710083008,3.381763458251953,3.381763458251953,1500,0.30075862292312416,0.0,-0.31299999356269836,0.028710881248116493,-0.562254786491394,9.180304527282715,-0.005062360316514969,-0.008792520500719547,0.014121320098638535
0.29765699701820375,Acceleration_Y,0,3.3455142026298392,1500,12.253999710083008,3.3681480884552,3.3681480884552,1500,0.30277455434401374,0.0,0.009999999776482582,0.09570293873548508,-0.009570294059813023,8.905158996582031,0.01065760012716055,0.031439922749996185,0.0213152002543211
0.29765699701820375,Acceleration_Y,0,3.348622816445983,1500,12.244999885559082,3.3724770545959473,3.3724770545959473,1500,0.30009127613789505,0.0,0.0,0.31581971049308777,0.007177720312029123,8.804670333862305,-0.005861680023372173,0.027709761634469032,0.006394560448825359
0.29765699701820375,Acceleration_Y,0,3.3374317106420537,1500,12.244999885559082,3.360572099685669,3.360572099685669,1500,0.30082755552626955,0.0,-0.32199999690055847,0.29907169938087463,0.4258780777454376,8.842951774597168,0.008526080287992954,0.017585041001439095,0.009591840207576752
0.29765699701820375,Acceleration_Y,0,3.3254425695550793,1500,12.267000198364258,3.34446120262146,3.34446120262146,1500,0.30194990887373463,0.0,0.006000000052154064,0.27993109822273254,-0.6747057437896729,9.776055335998535,-0.007460320368409157,0.03197279945015907,-0.019183680415153503
0.29765699701820375,Acceleration_Y,0,3.3274906548111276,1500,12.267000198364258,3.346165180206299,3.346165180206299,1500,0.29972159575639185,0.0,0.04600000008940697,0.18662072718143463,-0.3899894952774048,10.072734832763672,0.03330500051379204,0.015187080949544907,-0.0007993200561031699
0.29765699701820375,Acceleration_Y,0,3.338872655623226,1500,12.263999938964844,3.3351266384124756,3.3351266384124756,1500,0.2960494003198265,0.0,-0.33500000834465027,-0.1818355917930603,0.19379845261573792,9.536797523498535,-0.015187080949544907,-0.025578241795301437,-0.008259640075266361
0.28280337501224734,Acceleration_Y,0,3.2615444581571547,1500,12.263999938964844,3.3232033252716064,3.3232033252716064,1500,0.2972811442451687,0.0,-0.32899999618530273,0.028710881248116493,-0.07177720218896866,9.189874649047852,-0.0732709988951683,0.003996599931269884,-0.017585041001439095
0.28280337501224734,Acceleration_Y,0,3.2321517798689356,1500,12.26099967956543,3.325796127319336,3.325796127319336,1500,0.2992777033249113,0.0,0.06300000101327896,0.20576132833957672,-0.3253899812698364,9.505694389343262,0.027976201847195625,-0.015187080949544907,0.018650799989700317
0.28280337501224734,Acceleration_Y,0,3.209615128078997,1500,12.26099967956543,3.337716579437256,3.337716579437256,1500,0.29661541333463093,0.0,0.01899999938905239,0.29907169938087463,0.05263661593198776,9.481768608093262,-0.015453520230948925,-0.03596940264105797,0.011456920765340328
0.28280337501224734,Acceleration_Y,0,3.181256338011677,1500,12.25,3.2598609924316406,3.2598609924316406,1500,0.2956113393769684,0.0,-0.3070000112056732,0.10288066416978836,-0.021533161401748657,9.366925239562988,0.00452948035672307,0.007193880155682564,0.018650799989700317
0.28280337501224734,Acceleration_Y,0,3.150012913709728,1500,12.25,3.2309374809265137,3.2309374809265137,1500,0.295948466494797,0.0,-0.07599999755620956,-0.17944301664829254,-0.6029285192489624,10.560819625854492,-0.0037301601842045784,0.00905896071344614,0.016519280150532722
0.28280337501224734,Acceleration_Y,0,3.1188264614393577,1500,12.255000114440918,3.2084271907806396,3.2084271907806396,1500,0.29633571921771484,0.0,0.03500000014901161,0.4761221408843994,-0.7895492315292358,8.668293952941895,0.006927440408617258,-0.008526080287992954,0.01705216057598591
0.28280337501224734,Acceleration_Y,0,3.1029946385825045,1500,12.255000114440918,3.1794917583465576,3.1794917583465576,1500,0.2933864167231669,0.0,-0.004000000189989805,0.49765530228614807,-0.83979332447052,9.742559432983398,-0.006661000195890665,-0.005328800063580275,0.005062360316514969
0.28280337501224734,Acceleration_Y,0,3.0964024775761407,1500,12.255999565124512,3.149111032485962,3.149111032485962,1500,0.289347934969485,0.0,-0.3269999921321869,0.04785146936774254,0.29189395904541016,10.395731925964355,0.007460320368409157,0.002397960051894188,-0.0031972802244126797
0.28280337501224734,Acceleration_Y,0,3.0862315252265784,1500,12.255999565124512,3.1167685985565186,3.1167685985565186,1500,0.28774435231004736,0.0,-0.33500000834465027,-0.12202125042676926,0.46894440054893494,10.824002265930176,0.024246040731668472,0.019983001053333282,0.005861680023372173
0.28280337501224734,Acceleration_Y,0,3.0765372862592786,1500,12.25100040435791,3.1001837253570557,3.1001837253570557,1500,0.2871866531885956,0.0,-0.05400000140070915,0.34692317247390747,-0.23686477541923523,8.613265037536621,0.02930840104818344,0.01332200039178133,-0.005062360316514969
0.28280337501224734,Acceleration_Y,0,3.0689635039546697,1500,12.25100040435791,3.095079183578491,3.095079183578491,1500,0.28662193543026343,0.0,0.052000001072883606,0.531151294708252,-0.6340319514274597,8.517561912536621,0.0026644000317901373,0.028509080410003662,-0.0021315200719982386
0.28280337501224734,Acceleration_Y,0,3.06150450297066,1500,12.256999969482422,3.0846781730651855,3.0846781730651855,1500,0.2862960292333246,0.0,0.06499999761581421,-0.07416977733373642,0.3947746157646179,10.510575294494629,0.05328800156712532,-0.0013322000158950686,0.027176881209015846
0.28280337501224734,Acceleration_Y,0,3.0557543912401246,1500,12.256999969482422,3.0744643211364746,3.0744643211364746,1500,0.2858072743902065,0.0,0.024000000208616257,0.1818355917930603,-0.016748014837503433,8.436214447021484,-0.0037301601842045784,-0.0018650800921022892,0.007193880155682564
0.28280337501224734,Acceleration_Y,0,3.0573322157794394,1500,12.255999565124512,3.067404270172119,3.067404270172119,1500,0.28400812177631063,0.0,0.006000000052154064,-0.0693846344947815,0.12680639326572418,9.268829345703125,-0.04129820317029953,-0.02584468014538288,-0.0029308400116860867
0.28280337501224734,Acceleration_Y,0,3.0637540260942266,1500,12.255999565124512,3.0605955123901367,3.0605955123901367,1500,0.281828263494558,0.0,-0.10300000011920929,0.14833955466747284,0.10527323186397552,10.292851448059082,-0.07886624336242676,0.0013322000158950686,0.007460320368409157
0.28280337501224734,Acceleration_Y,0,3.0797732177298456,1500,12.256999969482422,3.0540359020233154,3.0540359020233154,1500,0.27861811061752806,0.0,-0.24300000071525574,-0.14594697952270508,0.04785146936774254,10.048809051513672,0.04795920103788376,-0.03756804019212723,0.014121320098638535
0.28280337501224734,Acceleration_Y,0,3.1041776833299233,1500,12.256999969482422,3.0557382106781006,3.0557382106781006,1500,0.2750008344163859,0.0,-0.35499998927116394,-0.08374007046222687,0.8326155543327332,10.015313148498535,-0.02238096110522747,-0.0213152002543211,-0.0013322000158950686
0.28280337501224734,Acceleration_Y,0,3.1363664176113706,1500,12.258999824523926,3.061344623565674,3.061344623565674,1500,0.27138682368207323,0.0,-0.3070000112056732,0.21772418916225433,0.7488754987716675,7.981625080108643,0.01811792142689228,-0.027709761634469032,0.021848080679774284
0.28280337501224734,Acceleration_Y,0,3.165177754515859,1500,12.258999824523926,3.078371047973633,3.078371047973633,1500,0.27014390847736197,0.0,-0.32899999618530273,0.5144032835960388,0.19858360290527344,8.938654899597168,-0.0013322000158950686,0.00905896071344614,0.016519280150532722
0.28280337501224734,Acceleration_Y,0,3.186008254769885,1500,12.244999885559082,3.1020665168762207,3.1020665168762207,1500,0.2715189158169131,0.0,-0.16899999976158142,0.3899894952774048,0.138769268989563,8.871662139892578,0.006394560448825359,-0.013854880817234516,0.015187080949544907
0.28280337501224734,Acceleration_Y,0,3.2043164127206545,1500,12.244999885559082,3.1343798637390137,3.1343798637390137,1500,0.27320759963405744,0.0,0.00800000037997961,-0.3253899812698364,0.4091300666332245,9.993779182434082,-0.0005328800179995596,0.005861680023372173,-0.0037301601842045784
0.28280337501224734,Acceleration_Y,0,3.2183050263446376,1500,12.248000144958496,3.1640665531158447,3.1640665531158447,1500,0.27504941052284,0.0,0.06300000101327896,0.2703607976436615,-0.13637669384479523,9.661211967468262,0.011456920765340328,0.011190480552613735,-0.01332200039178133
0.28280337501224734,Acceleration_Y,0,3.225469912066433,1500,12.248000144958496,3.1844799518585205,3.1844799518585205,1500,0.2774750657466728,0.0,0.06800000369548798,0.7058091759681702,0.05981433764100075,10.515360832214355,0.009325399994850159,0.033837880939245224,0.016519280150532722
0.28280337501224734,Acceleration_Y,0,3.243330117990085,1500,12.236000061035156,3.2034525871276855,3.2034525871276855,1500,0.2766658978023944,0.0,0.02800000086426735,-0.36127859354019165,0.055029191076755524,9.003253936767578,-0.007193880155682564,0.03596940264105797,0.017851481214165688
0.28280337501224734,Acceleration_Y,0,3.2648675111944296,1500,12.236000061035156,3.217048406600952,3.217048406600952,1500,0.274938619020112,0.0,-0.26499998569488525,0.1890133023262024,0.40434491634368896,8.847736358642578,-0.0007993200561031699,0.01625283993780613,0.0173186007887125
0.28280337501224734,Acceleration_Y,0,3.285100110059223,1500,12.256999969482422,3.2242720127105713,3.2242720127105713,1500,0.2741285025400022,0.0,-0.3240000009536743,0.03588860109448433,-0.11245095729827881,9.749736785888672,0.01971656084060669,0.01971656084060669,0.024512480944395065
0.28280337501224734,Acceleration_Y,0,3.2922671649691986,1500,12.256999969482422,3.241295576095581,3.241295576095581,1500,0.276540500432462,0.0,-0.26499998569488525,0.2966791093349457,-0.24882765114307404,9.008039474487305,0.022913841530680656,0.003463720204308629,0.0
0.2507989553647127,Acceleration_Y,0,3.1435006510728347,1500,12.255000114440918,3.2628939151763916,3.2628939151763916,1500,0.2785129723251899,0.0,0.04600000008940697,0.7632309198379517,-1.2919896841049194,9.699493408203125,-0.054620202630758286,-0.016785720363259315,0.006128120236098766
0.2507989553647127,Acceleration_Y,0,3.0951719393786594,1500,12.255000114440918,3.2833187580108643,3.2833187580108643,1500,0.2812163118861195,0.0,0.04600000008940697,0.954636812210083,-0.04785146936774254,10.510575294494629,-0.024246040731668472,-0.05328800156712532,0.006128120236098766
0.2507989553647127,Acceleration_Y,0,3.0361827952808813,1500,12.26099967956543,3.2917377948760986,3.2917377948760986,1500,0.2797131474373226,0.0,-0.024000000208616257,0.3206048607826233,-0.5048329830169678,8.0414400100708,0.040765322744846344,-0.03836736083030701,0.03756804019212723
0.2507989553647127,Acceleration_Y,0,2.9794586270195613,1500,12.26099967956543,3.141881227493286,3.141881227493286,1500,0.2777616210041014,0.0,-0.34599998593330383,0.08374007046222687,0.21054646372795105,9.402813911437988,0.033038560301065445,-0.04662699997425079,0.027709761634469032
0.2507989553647127,Acceleration_Y,0,2.9128643588403462,1500,12.24899959564209,3.094573497772217,3.094573497772217,1500,0.2786529937442124,0.0,-0.2630000114440918,0.09331036359071732,0.4521963894367218,8.347688674926758,-0.02158164046704769,0.006394560448825359,0.03703515976667404
0.2507989553647127,Acceleration_Y,0,2.850660353959648,1500,12.24899959564209,3.035029888153076,3.035029888153076,1500,0.2786993103186105,0.0,0.05700000002980232,0.7823715209960938,-0.5933582186698914,8.723322868347168,-0.003996599931269884,-0.039166681468486786,0.012789120897650719
0.2507989553647127,Acceleration_Y,0,2.7900708089548085,1500,12.26200008392334,2.9786441326141357,2.9786441326141357,1500,0.27826204017721023,0.0,0.09200000017881393,-0.11005838215351105,-0.6364245414733887,9.888505935668945,-0.04742632061243057,0.05355444177985191,0.05142292007803917
0.2507989553647127,Acceleration_Y,0,2.732349035896764,1500,12.26200008392334,2.910521984100342,2.910521984100342,1500,0.2773527345589784,0.0,0.05400000140070915,0.7991195321083069,-0.9833477139472961,8.216097831726074,0.006927440408617258,-0.01198980025947094,-0.0021315200719982386
0.2507989553647127,Acceleration_Y,0,2.6799137914667126,1500,12.253000259399414,2.8488223552703857,2.8488223552703857,1500,0.2756903831537028,0.0,0.052000001072883606,0.32299742102622986,-0.5574696063995361,9.646856307983398,-0.005062360316514969,0.005595240276306868,-0.009325399994850159
0.2507989553647127,Acceleration_Y,0,2.6329287989194268,1500,12.253000259399414,2.789259433746338,2.789259433746338,1500,0.27355398277350074,0.0,0.052000001072883606,0.3971672058105469,-0.2583979368209839,9.711456298828125,-0.006927440408617258,0.026910440996289253,0.006927440408617258
0.2507989553647127,Acceleration_Y,0,2.5941493586796835,1500,12.25,2.730729103088379,2.730729103088379,1500,0.270643103071667,0.0,0.05000000074505806,0.0813474953174591,-0.06459948420524597,9.405206680297852,0.0037301601842045784,0.02930840104818344,0.0029308400116860867
0.2507989553647127,Acceleration_Y,0,2.5683412937467014,1500,12.25,2.6779861450195312,2.6779861450195312,1500,0.26627925737750313,0.0,0.03700000047683716,0.275145947933197,-0.10288066416978836,10.211503982543945,0.0026644000317901373,0.016519280150532722,0.0077267601154744625
0.2507989553647127,Acceleration_Y,0,2.5724992241558122,1500,12.267999649047852,2.6308043003082275,2.6308043003082275,1500,0.2575188641756522,0.0,-0.05900000035762787,0.36845633387565613,-0.7584457993507385,8.567805290222168,-0.014121320098638535,0.01332200039178133,-0.022647401317954063
0.2507989553647127,Acceleration_Y,0,2.5777906726111595,1500,12.267999649047852,2.5933187007904053,2.5933187007904053,1500,0.25186621345734683,0.0,-0.32199999690055847,-0.478514701128006,0.031103456392884254,9.539190292358398,0.02504536136984825,0.025578241795301437,0.005595240276306868
0.2507989553647127,Acceleration_Y,0,2.5943116748200845,1500,12.24899959564209,2.567186117172241,2.567186117172241,1500,0.24703222917708875,0.0,0.017000000923871994,0.43784093856811523,0.3373528718948364,9.503301620483398,0.0029308400116860867,0.019450120627880096,0.0031972802244126797
0.2507989553647127,Acceleration_Y,0,2.636237765052771,1500,12.24899959564209,2.5705885887145996,2.5705885887145996,1500,0.239336983053285,0.0,0.05700000002980232,0.29189395904541016,0.2440425008535385,9.730596542358398,-0.04529480263590813,-0.027976201847195625,-0.013854880817234516
0.2507989553647127,Acceleration_Y,0,2.6853660409745737,1500,12.246999740600586,2.5752718448638916,2.5752718448638916,1500,0.23325518569960788,0.0,-0.19900000095367432,-0.04067374765872955,-0.275145947933197,9.704277992248535,-0.06501135975122452,0.012522680684924126,-0.026377560570836067
0.2507989553647127,Acceleration_Y,0,2.720237394119126,1500,12.246999740600586,2.5922815799713135,2.5922815799713135,1500,0.23319390031877385,0.0,-0.19300000369548798,-0.07895492762327194,-0.4521963894367218,9.847832679748535,-0.03517008200287819,-0.006394560448825359,0.016519280150532722
0.2507989553647127,Acceleration_Y,0,2.756264565704826,1500,12.255000114440918,2.6348249912261963,2.6348249912261963,1500,0.23393284509826046,0.0,0.05000000074505806,-0.04067374765872955,0.41391521692276,9.558331489562988,0.06847508251667023,-0.06900796294212341,0.015719961374998093
0.2507989553647127,Acceleration_Y,0,2.8111229262977493,1500,12.255000114440918,2.684185266494751,2.684185266494751,1500,0.23056399206126807,0.0,0.03700000047683716,0.5455067753791809,-0.43544837832450867,8.620442390441895,0.02477892115712166,-0.009325399994850159,0.0015986401122063398
0.2507989553647127,Acceleration_Y,0,2.8654232526283376,1500,12.258999824523926,2.719114303588867,2.719114303588867,1500,0.22819953541511173,0.0,-0.3160000145435333,0.7751938104629517,0.3445305824279785,8.771174430847168,0.01971656084060669,-0.025578241795301437,0.014387760311365128
0.2507989553647127,Acceleration_Y,0,2.9014083449328325,1500,12.258999824523926,2.7548696994781494,2.7548696994781494,1500,0.23087532026865548,0.0,-0.2919999957084656,0.25361278653144836,-0.28471624851226807,9.553545951843262,-0.026111120358109474,-0.013055560179054737,0.008792520500719547
0.2507989553647127,Acceleration_Y,0,2.932757012255665,1500,12.251999855041504,2.8094518184661865,2.8094518184661865,1500,0.23409981132878832,0.0,0.06499999761581421,0.028710881248116493,-0.2009761780500412,8.247200965881348,-0.018384359776973724,0.016519280150532722,0.010391159914433956
0,Acceleration_Y,0,1.735718541428977,1500,12.251999855041504,2.8639049530029297,2.8639049530029297,1500,0.23840277434751042,0.0,0.05000000074505806,-0.011962867341935635,0.540721595287323,8.883625030517578,0.021048760041594505,-0.02051588147878647,0.018384359776973724
0,Acceleration_Y,0,1.3841591293957722,1500,12.265999794006348,2.8995461463928223,2.8995461463928223,1500,0.24239254225991305,0.0,0.05000000074505806,-0.014355440624058247,0.014355440624058247,8.503206253051758,0.019983001053333282,-0.018650799989700317,0.009325399994850159
0,Acceleration_Y,0,0.8595975717934964,1500,12.265999794006348,2.930211067199707,2.930211067199707,1500,0.2387074577972808,0.0,0.026000000536441803,0.30385681986808777,0.24882765114307404,9.493731498718262,0.0013322000158950686,-0.0002664400089997798,0.005595240276306868
0,Acceleration_Y,0,0.37047873908859735,1500,12.244999885559082,1.734708309173584,1.734708309173584,1500,0.22825849392094286,0.0,-0.02800000086426735,-0.22250933945178986,-1.4283664226531982,8.754426002502441,0.0021315200719982386,0.014121320098638535,-0.008526080287992954
0,Acceleration_Y,0,0.0,1500,12.244999885559082,1.3826645612716675,1.3826645612716675,1500,0.1992373415445344,0.0,0.004000000189989805,-1.354196548461914,0.011962867341935635,8.699397087097168,0.022913841530680656,0.04476192221045494,0.015719961374998093
0,Acceleration_Y,0,0.0,1500,12.237000465393066,0.8582895994186401,0.8582895994186401,1500,0.15574929932193132,0.0,-0.34599998593330383,-0.3947746157646179,-0.21772418916225433,9.137238502502441,0.0021315200719982386,0.023713160306215286,-0.004263040143996477
0,Acceleration_Y,0,0.0,1500,12.237000465393066,0.36880961060523987,0.36880961060523987,1500,0.09929651851746227,0.0,-0.029999999329447746,-0.3373528718948364,-0.7129868865013123,9.264044761657715,-0.004795920103788376,0.015187080949544907,0.002397960051894188
0,Acceleration_Y,0,0.0,1500,12.246999740600586,0.0,0.0,1500,0.04652742951563626,0.0,-0.00800000037997961,-0.830223023891449,-0.2631830871105194,9.366925239562988,-0.009325399994850159,-0.0015986401122063398,-0.008259640075266361
0,Acceleration_Y,0,0.0,1500,12.246999740600586,0.0,0.0,1500,0.02112994023651638,0.0,-0.01899999938905239,-0.19379845261573792,0.0,9.572686195373535,0.003996599931269884,-0.017851481214165688,-0.0031972802244126797
0,Acceleration_Y,0,0.0,1500,12.229000091552734,0.0,0.0,1500,0.011339885821115735,0.0,0.0,0.5742176175117493,-0.22490191459655762,9.472198486328125,0.0031972802244126797,-0.018384359776973724,0.0015986401122063398
0,Acceleration_Y,0,0.0,1500,12.229000091552734,0.0,0.0,1500,0.007151335400553878,0.0,0.0,0.22729448974132538,-0.1315915435552597,9.386065483093262,0.0026644000317901373,0.004263040143996477,-0.004795920103788376
0,Acceleration_Y,0,0.0,1500,12.236000061035156,0.0,0.0,1500,0.005030054320491101,0.0,0.0,0.16508756577968597,-0.18662072718143463,9.374102592468262,0.0007993200561031699,0.0018650800921022892,-0.0013322000158950686
0,Acceleration_Y,0,0.0,1500,12.236000061035156,0.0,0.0,1500,0.003801594575636385,0.0,0.0,0.29907169938087463,-0.10288066416978836,9.414776802062988,0.0007993200561031699,-0.003463720204308629,-0.0015986401122063398
0,Acceleration_Y,0,0.0,1500,12.246000289916992,0.0,0.0,1500,0.0030181453220213795,0.0,0.0,0.26079049706459045,-0.16508756577968597,9.340606689453125,0.0005328800179995596,-0.0021315200719982386,-0.0007993200561031699
0,Acceleration_Y,0,0.0,1500,12.246000289916992,0.0,0.0,1500,0.002482277480812869,0.0,0.0,0.2631830871105194,-0.14594697952270508,9.340606689453125,-0.0002664400089997798,0.0,-0.0021315200719982386
0,Acceleration_Y,0,0.0,1500,12.237000465393066,0.0,0.0,1500,0.0020960807470948167,0.0,0.0,0.27993109822273254,-0.11723610013723373,9.362139701843262,-0.0005328800179995596,-0.0002664400089997798,-0.0007993200561031699
0,Acceleration_Y,0,0.0,1500,12.237000465393066,0.0,0.0,1500,0.0018063291625710722,0.0,0.0,0.28710880875587463,-0.11245095729827881,9.431524276733398,0.0,-0.0013322000158950686,-0.0005328800179995596
0,Acceleration_Y,0,0.0,1500,12.241000175476074,0.0,0.0,1500,0.0015819226337355163,0.0,0.0,0.2895013988018036,-0.07895492762327194,9.479375839233398,0.0010657600359991193,-0.0018650800921022892,-0.0005328800179995596
0,Acceleration_Y,0,0.0,1500,12.241000175476074,0.0,0.0,1500,0.001403610053992457,0.0,0.0,0.2631830871105194,-0.11723610013723373,9.340606689453125,0.0007993200561031699,0.0,-0.0013322000158950686
0,Acceleration_Y,0,0.0,1500,12.241999626159668,0.0,0.0,1500,0.0012589020260906172,0.0,0.0,0.30385681986808777,-0.14355440437793732,9.347784996032715,0.0010657600359991193,-0.0005328800179995596,-0.0013322000158950686
0,Acceleration_Y,0,0.0,1500,12.241999626159668,0.0,0.0,1500,0.0011393748991967545,0.0,0.0,0.2512202262878418,-0.14116182923316956,9.350176811218262,0.0002664400089997798,-0.0005328800179995596,-0.0005328800179995596
0,Acceleration_Y,0,0.0,1500,12.227999687194824,0.0,0.0,1500,0.0010391588134385404,0.0,0.0,0.28471624851226807,-0.11245095729827881,9.304718017578125,0.0,-0.0005328800179995596,0.0
