Reference,Bias_Sensor,Bias_val,Throttle_Control,Servo_Control,Voltage,Throttle_A,Throttle_B,Servo,Linear_X,Linear_Y,Linear_Z,Acceleration_X,Acceleration_Y,Acceleration_Z,Angular_X,Angular_Y,Angular_Z
0,Acceleration_Z,0,0.0,1500,12.211000442504883,0.0,0.0,1500,0.0,0.0,0.0,0.3086419701576233,-0.03588860109448433,9.347784996032715,0.0005328800179995596,0.0,-0.0013322000158950686
0,Acceleration_Z,0,0.0,1500,12.220000267028809,0.0,0.0,1500,0.0,0.0,0.0,0.28710880875587463,-0.02392573468387127,9.376495361328125,0.0002664400089997798,-0.0005328800179995596,-0.0002664400089997798
0,Acceleration_Z,0,0.0,1500,12.220000267028809,0.0,0.0,1500,0.0,0.0,0.0,0.2895013988018036,-0.045458897948265076,9.323859214782715,-0.0007993200561031699,0.0002664400089997798,-0.0010657600359991193
0,Acceleration_Z,0,0.0,1500,12.220999717712402,0.0,0.0,1500,0.0,0.0,0.0,0.3206048607826233,-0.011962867341935635,9.352569580078125,-0.0002664400089997798,0.0010657600359991193,-0.0007993200561031699
0,Acceleration_Z,0,0.0,1500,12.220999717712402,0.0,0.0,1500,0.0,0.0,0.0,0.2966791093349457,-0.04785146936774254,9.381280899047852,0.0,-0.0010657600359991193,-0.0007993200561031699
0,Acceleration_Z,0,0.0,1500,12.225000381469727,0.0,0.0,1500,0.0,0.0,0.0,0.3086419701576233,-0.011962867341935635,9.369318008422852,-0.0013322000158950686,-0.0002664400089997798,-0.0015986401122063398
0,Acceleration_Z,0,0.0,1500,12.220000267028809,0.0,0.0,1500,0.0,0.0,0.0,0.29907169938087463,-0.0693846344947815,9.340606689453125,0.0007993200561031699,-0.0005328800179995596,0.0
0.3013629702899068,Acceleration_Z,0,1.4619117767585093,1500,12.220000267028809,0.0,0.0,1500,0.0,0.0,0.0,0.3062494099140167,-0.02392573468387127,9.381280899047852,0.0002664400089997798,-0.0010657600359991193,-0.0007993200561031699
0.3013629702899068,Acceleration_Z,0,1.898787046477422,1500,12.218999862670898,0.0,0.0,1500,0.0,0.0,0.0,0.2895013988018036,-0.07177720218896866,9.335822105407715,0.0002664400089997798,-0.0018650800921022892,-0.0002664400089997798
0.3013629702899068,Acceleration_Z,0,2.561493458546431,1500,12.218999862670898,1.4594916105270386,1.4594916105270386,1500,0.0031818181953646918,0.0,-0.039000000804662704,1.6987271308898926,-0.03588860109448433,9.283185005187988,0.003463720204308629,-0.013854880817234516,0.0077267601154744625
0.3013629702899068,Acceleration_Z,0,3.1936657869325185,1500,12.258999824523926,1.8967396020889282,1.8967396020889282,1500,0.011713567812731283,0.0,0.006000000052154064,1.6197723150253296,0.531151294708252,8.816633224487305,0.005595240276306868,0.02824264019727707,0.01198980025947094
0.3013629702899068,Acceleration_Z,0,3.7531882739653937,1500,12.258999824523926,2.5607688426971436,2.5607688426971436,1500,0.032129473128746866,0.0,0.05700000002980232,1.2584936618804932,0.13637669384479523,9.823906898498535,0.0010657600359991193,-0.01198980025947094,0.0
0.3013629702899068,Acceleration_Z,0,4.151119010741455,1500,12.26099967956543,3.191265821456909,3.191265821456909,1500,0.07831555272384486,0.0,0.07199999690055847,1.3757297992706299,-0.031103456392884254,8.914729118347168,-0.006394560448825359,-0.01198980025947094,0.021848080679774284
0.3013629702899068,Acceleration_Z,0,4.315768643783664,1500,12.26099967956543,3.751525402069092,3.751525402069092,1500,0.15546897353961406,0.0,0.06300000101327896,1.4738253355026245,-0.5383290648460388,10.479472160339355,-0.01625283993780613,-0.012256240472197533,0.009325399994850159
0.3013629702899068,Acceleration_Z,0,4.30435907821422,1500,12.279000282287598,4.1492791175842285,4.1492791175842285,1500,0.23823748155593605,0.0,0.08299999684095383,1.1221169233322144,0.033496029675006866,9.551153182983398,-0.01971656084060669,0.03596940264105797,0.04715988039970398
0.3013629702899068,Acceleration_Z,0,4.237189467476642,1500,12.279000282287598,4.314704418182373,4.314704418182373,1500,0.2950238841689545,0.0,-0.00800000037997961,0.5813953876495361,-0.07416977733373642,7.639487266540527,-0.01811792142689228,-0.027709761634469032,0.03836736083030701
0.3013629702899068,Acceleration_Z,0,4.114317931667766,1500,12.274999618530273,4.303069591522217,4.303069591522217,1500,0.33266790955760756,0.0,0.05900000035762787,0.27275338768959045,0.23686477541923523,8.979328155517578,-0.02477892115712166,0.012522680684924126,0.02584468014538288
0.3013629702899068,Acceleration_Z,0,4.028658688601061,1500,12.274999618530273,4.236579895019531,4.236579895019531,1500,0.3420186212493605,0.0,-0.3310000002384186,0.011962867341935635,0.5766102075576782,9.060675621032715,0.012256240472197533,0.005595240276306868,0.061281200498342514
0.3013629702899068,Acceleration_Z,0,3.920406858947691,1500,12.265999794006348,4.1125168800354,4.1125168800354,1500,0.34702106413809863,0.0,-0.3109999895095825,0.265575647354126,0.4713369905948639,9.627716064453125,-0.026111120358109474,0.0031972802244126797,0.04715988039970398
0.3013629702899068,Acceleration_Z,0,3.8216633669621007,1500,12.265999794006348,4.027336597442627,4.027336597442627,1500,0.3470145490857028,0.0,-0.24799999594688416,0.1890133023262024,-0.7416977882385254,8.359651565551758,0.007193880155682564,0.05595240369439125,0.03437076136469841
0.3013629702899068,Acceleration_Z,0,3.6961291460991594,1500,12.237000465393066,3.9192392826080322,3.9192392826080322,1500,0.35173716915868425,0.0,0.01899999938905239,0.028710881248116493,1.2872045040130615,9.613360404968262,0.03596940264105797,0.014387760311365128,0.058083921670913696
0.3013629702899068,Acceleration_Z,0,3.5685923402204582,1500,12.237000465393066,3.8206634521484375,3.8206634521484375,1500,0.3554450822103914,0.0,0.09000000357627869,0.4019523561000824,-0.9857403039932251,10.508182525634766,-0.01811792142689228,0.044229041785001755,0.022913841530680656
0.3013629702899068,Acceleration_Z,0,3.4827181486435626,1500,12.223999977111816,3.694364309310913,3.694364309310913,1500,0.34867542537157,0.0,-0.29600000381469727,-0.4593740999698639,1.3398411273956299,9.840654373168945,-0.06900796294212341,0.05515308305621147,0.035702962428331375
0.3013629702899068,Acceleration_Z,0,3.3916599079224126,1500,12.223999977111816,3.567030906677246,3.567030906677246,1500,0.3443667559900997,0.0,-0.2280000001192093,-0.26796823740005493,0.16508756577968597,11.414968490600586,0.041564639657735825,-0.13268712162971497,0.03756804019212723
0.3013629702899068,Acceleration_Z,0,3.294016512704345,1500,12.234999656677246,3.480177640914917,3.480177640914917,1500,0.3438424490334236,0.0,0.06300000101327896,0.4067375063896179,-0.16508756577968597,9.364532470703125,-0.017851481214165688,-0.053820881992578506,0.01811792142689228
0.3013629702899068,Acceleration_Z,0,3.2383858124546854,1500,12.234999656677246,3.3901145458221436,3.3901145458221436,1500,0.33551414353541603,0.0,-0.2919999957084656,-0.20336875319480896,0.10288066416978836,9.756915092468262,0.007993199862539768,0.0013322000158950686,0.04955784231424332
0.3013629702899068,Acceleration_Z,0,3.1740199485551943,1500,12.232999801635742,3.292715549468994,3.292715549468994,1500,0.3315786687221586,0.0,0.04800000041723251,-0.3325677216053009,-1.081443190574646,10.335917472839355,-0.01971656084060669,-0.006128120236098766,0.05062360316514969
0.3013629702899068,Acceleration_Z,0,3.1263686161871473,1500,12.232999801635742,3.236647844314575,3.236647844314575,1500,0.32672410418498876,0.0,-0.00800000037997961,0.41870036721229553,0.07895492762327194,8.866877555847168,-0.01705216057598591,-0.01971656084060669,0.032239239662885666
0.3013629702899068,Acceleration_Z,0,3.1217854365232496,1500,12.236000061035156,3.1728627681732178,3.1728627681732178,1500,0.3151138081066849,0.0,-0.2849999964237213,-0.3445305824279785,0.2512202262878418,9.522442817687988,0.024512480944395065,0.027176881209015846,0.04476192221045494
0.3013629702899068,Acceleration_Z,0,3.1125675413976395,1500,12.236000061035156,3.1252782344818115,3.1252782344818115,1500,0.3087146136633149,0.0,-0.052000001072883606,0.48569241166114807,-0.691453754901886,10.099052429199219,-0.010124720633029938,-0.01065760012716055,0.03357144072651863
0.3013629702899068,Acceleration_Z,0,3.1092238377468457,1500,12.234000205993652,3.1196701526641846,3.1196701526641846,1500,0.30493726732612836,0.0,0.061000000685453415,-0.13637669384479523,0.4163077771663666,8.708967208862305,-0.011456920765340328,0.013588440604507923,0.03596940264105797
0.3013629702899068,Acceleration_Z,0,3.1161773685401206,1500,12.234000205993652,3.1111743450164795,3.1111743450164795,1500,0.3012225445452594,0.0,0.061000000685453415,0.30385681986808777,-0.3445305824279785,10.108623504638672,0.019450120627880096,0.04316328093409538,0.029841281473636627
0.3013629702899068,Acceleration_Z,0,3.146595511717688,1500,12.243000030517578,3.1083614826202393,3.1083614826202393,1500,0.29440180123327614,0.0,-0.18400000035762787,0.37324145436286926,0.3971672058105469,10.218681335449219,0.025578241795301437,-0.0005328800179995596,0.042363960295915604
0.3013629702899068,Acceleration_Z,0,3.2001837728067173,1500,12.243000030517578,3.1151633262634277,3.1151633262634277,1500,0.2854556728337552,0.0,-0.3160000145435333,-0.06459948420524597,-0.13398411870002747,9.754522323608398,0.00452948035672307,0.03969956189393997,0.04982428252696991
0.3013629702899068,Acceleration_Z,0,3.2667011766433736,1500,12.246999740600586,3.1450977325439453,3.1450977325439453,1500,0.2776471939821975,0.0,-0.34200000762939453,0.22250933945178986,0.488085001707077,10.046416282653809,-0.03703515976667404,0.015187080949544907,0.023713160306215286
0.3456269170556742,Acceleration_Z,0,3.5585489388758935,1500,12.246999740600586,3.199528694152832,3.199528694152832,1500,0.271464768810532,0.0,-0.35499998927116394,0.3708488941192627,-0.7345200777053833,9.491338729858398,-0.033837880939245224,0.02664400078356266,0.021048760041594505
0.3456269170556742,Acceleration_Z,0,3.6695643385274073,1500,12.244999885559082,3.265333414077759,3.265333414077759,1500,0.27463644110941937,0.0,-0.05400000140070915,0.21054646372795105,-0.3253899812698364,7.926596164703369,0.06527779996395111,-0.0386338010430336,0.031439922749996185
0.3456269170556742,Acceleration_Z,0,3.8040013594961697,1500,12.244999885559082,3.556152105331421,3.556152105331421,1500,0.2803788849639818,0.0,0.08699999749660492,0.6579577326774597,0.16748014092445374,8.326155662536621,-0.031439922749996185,-0.014121320098638535,0.026910440996289253
0.3456269170556742,Acceleration_Z,0,3.936830192901269,1500,12.230999946594238,3.6676011085510254,3.6676011085510254,1500,0.284196656567108,0.0,-0.13600000739097595,-0.11723610013723373,-0.07895492762327194,9.610967636108398,0.005328800063580275,-0.05728460103273392,0.03703515976667404
0.3456269170556742,Acceleration_Z,0,4.056263461905211,1500,12.230999946594238,3.8035011291503906,3.8035011291503906,1500,0.28871451753700494,0.0,-0.27399998903274536,0.7440903782844543,0.37324145436286926,8.993683815002441,-0.0013322000158950686,0.031173480674624443,0.05142292007803917
0.3456269170556742,Acceleration_Z,0,4.136550594806413,1500,12.241000175476074,3.935821771621704,3.935821771621704,1500,0.2993035384097028,0.0,0.07199999690055847,0.48090726137161255,-0.16748014092445374,9.553545951843262,-0.029841281473636627,0.0021315200719982386,0.046893440186977386
0.3456269170556742,Acceleration_Z,0,4.189555563689076,1500,12.241000175476074,4.054831504821777,4.054831504821777,1500,0.3115962116822787,0.0,-0.0430000014603138,0.6148914098739624,0.9331036806106567,9.835869789123535,0.004795920103788376,0.019183680415153503,0.037301599979400635
0.3456269170556742,Acceleration_Z,0,4.23865295701381,1500,12.244999885559082,4.134387969970703,4.134387969970703,1500,0.3192922922145275,0.0,-0.31299999356269836,0.5072255730628967,-1.394870400428772,9.134845733642578,0.008259640075266361,0.059682562947273254,0.04982428252696991
0.3456269170556742,Acceleration_Z,0,4.263839390801418,1500,12.244999885559082,4.188810348510742,4.188810348510742,1500,0.32759177834624803,0.0,-0.23000000417232513,1.3015599250793457,-1.909273624420166,8.082113265991211,-0.0173186007887125,0.03703515976667404,0.034903641790151596
0.3456269170556742,Acceleration_Z,0,4.237955750593352,1500,12.234000205993652,4.2377214431762695,4.2377214431762695,1500,0.3426625461594458,0.0,0.09000000357627869,1.0479471683502197,-1.4666475057601929,8.371614456176758,0.055419523268938065,0.02930840104818344,0.03090704046189785
0.3456269170556742,Acceleration_Z,0,4.183767478619221,1500,12.234000205993652,4.261510372161865,4.261510372161865,1500,0.357696095437251,0.0,0.05700000002980232,0.11245095729827881,1.208249568939209,9.264044761657715,0.019183680415153503,0.041564639657735825,0.04396260157227516
0.3456269170556742,Acceleration_Z,0,4.114425792774916,1500,12.260000228881836,4.23651123046875,4.23651123046875,1500,0.3688785395278646,0.0,0.05400000140070915,-0.5144032835960388,0.19379845261573792,9.400421142578125,-0.03437076136469841,0.09538552165031433,0.02238096110522747
0.3456269170556742,Acceleration_Z,0,4.048970233148378,1500,12.260000228881836,4.1820220947265625,4.1820220947265625,1500,0.3734296945571011,0.0,-0.09200000017881393,0.239257350564003,0.22490191459655762,8.414681434631348,0.03783448040485382,0.028509080410003662,0.03890024125576019
0.3456269170556742,Acceleration_Z,0,3.9812903849778563,1500,12.230999946594238,4.112673759460449,4.112673759460449,1500,0.37523606383763897,0.0,-0.20399999618530273,1.0240215063095093,-1.7106900215148926,10.424442291259766,-0.014121320098638535,-0.08179708570241928,0.027176881209015846
0.3456269170556742,Acceleration_Z,0,3.933839749464438,1500,12.227999687194824,4.047128200531006,4.047128200531006,1500,0.370366794428772,0.0,-0.27000001072883606,1.0096659660339355,-1.3326634168624878,6.98631477355957,0.008792520500719547,0.06287984549999237,0.04902496188879013
0.3456269170556742,Acceleration_Z,0,3.894638558864353,1500,12.227999687194824,3.98089337348938,3.98089337348938,1500,0.3662360771477099,0.0,-0.2540000081062317,-0.05981433764100075,0.21772418916225433,7.3140974044799805,0.014387760311365128,0.003996599931269884,0.04103176295757294
0.3456269170556742,Acceleration_Z,0,3.864132596144207,1500,12.217000007629395,3.9314985275268555,3.9314985275268555,1500,0.3622856011562726,0.0,-0.2630000114440918,-0.1626949906349182,0.17944301664829254,8.704182624816895,0.05222224071621895,0.01891724020242691,0.04662699997425079
0.3456269170556742,Acceleration_Z,0,3.8115303513968444,1500,12.217000007629395,3.8924720287323,3.8924720287323,1500,0.36474700004678606,0.0,0.013000000268220901,0.8206527233123779,-1.3398411273956299,9.359747886657715,-0.01198980025947094,-0.008259640075266361,0.0426304005086422
0.3456269170556742,Acceleration_Z,0,3.7655602133752653,1500,12.237000465393066,3.8631529808044434,3.8631529808044434,1500,0.3657667307496324,0.0,0.10899999737739563,0.4713369905948639,-1.3159154653549194,11.07043743133545,-0.025311801582574844,0.016785720363259315,0.04822564125061035
0.3456269170556742,Acceleration_Z,0,3.744162099830979,1500,12.237000465393066,3.8104660511016846,3.8104660511016846,1500,0.36100722677188607,0.0,-0.24799999594688416,0.555077075958252,-0.6459948420524597,9.625323295593262,0.014387760311365128,-0.023446720093488693,0.03437076136469841
0.3456269170556742,Acceleration_Z,0,3.7312105754783467,1500,12.255000114440918,3.763306140899658,3.763306140899658,1500,0.3557533790534642,0.0,-0.3240000009536743,0.12441382557153702,0.6531725525856018,10.996268272399902,-0.01198980025947094,0.015453520230948925,0.029574841260910034
0.3456269170556742,Acceleration_Z,0,3.7069391708773503,1500,12.255000114440918,3.7428812980651855,3.7428812980651855,1500,0.3551969668196173,0.0,0.06800000369548798,0.028710881248116493,0.23447220027446747,9.756915092468262,-0.0812642052769661,0.06740932166576385,0.039166681468486786
0.3456269170556742,Acceleration_Z,0,3.700219503878615,1500,12.239999771118164,3.729799747467041,3.729799747467041,1500,0.3520507901624155,0.0,-0.11800000071525574,-0.4450186789035797,0.22490191459655762,9.529620170593262,0.06607712060213089,-0.027976201847195625,0.04742632061243057
0.3456269170556742,Acceleration_Z,0,3.7053555733781516,1500,12.239999771118164,3.7042999267578125,3.7042999267578125,1500,0.3474900983104645,0.0,-0.29600000381469727,0.03588860109448433,-1.3278782367706299,10.99866008758545,-0.02584468014538288,-0.06847508251667023,0.0386338010430336
0.3456269170556742,Acceleration_Z,0.5610953158274901,3.6979710203771283,1500,12.225000381469727,3.6997604370117188,3.6997604370117188,1500,0.34739778245236896,0.0,0.1420000046491623,0.36127859354019165,0.007177720312029123,9.750969964875342,0.00905896071344614,-0.037301599979400635,0.048492081463336945
0.3456269170556742,Acceleration_Z,0.5610953158274901,3.7143108563784093,1500,12.225000381469727,3.7031564712524414,3.7031564712524414,1500,0.34319201999510646,0.0,-0.3240000009536743,0.36127859354019165,-0.7488754987716675,9.557171899689795,-0.02477892115712166,0.0231802798807621,0.057018160820007324
0.3456269170556742,Acceleration_Z,0.5610953158274901,3.728455032258348,1500,12.24899959564209,3.695114850997925,3.695114850997925,1500,0.3407106046395258,0.0,-0.14000000059604645,1.3230931758880615,-1.3207005262374878,9.334662515534522,-0.022913841530680656,0.014920640736818314,0.029574841260910034
0.3456269170556742,Acceleration_Z,0.5610953158274901,3.7331589660858175,1500,12.24899959564209,3.712127208709717,3.712127208709717,1500,0.34161360102898447,0.0,0.07000000029802322,0.2583979368209839,0.18422816693782806,11.873182374848486,0.022647401317954063,0.022114520892500877,0.03596940264105797
0.3456269170556742,Acceleration_Z,0,3.7590479585773715,1500,12.256999969482422,3.726468324661255,3.726468324661255,1500,0.3382855218840809,0.0,-0.3199999928474426,0.16508756577968597,-0.8039047122001648,8.902766227722168,0.002397960051894188,0.04129820317029953,0.03783448040485382
0.3456269170556742,Acceleration_Z,0,3.785418598665932,1500,12.232000350952148,3.73245906829834,3.73245906829834,1500,0.33611218024554984,0.0,-0.3089999854564667,0.33017513155937195,-0.09091779589653015,7.687338829040527,0.027176881209015846,0.010124720633029938,0.02824264019727707
0.3456269170556742,Acceleration_Z,0,3.813103904738415,1500,12.232000350952148,3.7579424381256104,3.7579424381256104,1500,0.3344922515463026,0.0,-0.20399999618530273,0.07416977733373642,1.2824194431304932,8.823811531066895,-0.005595240276306868,0.01891724020242691,0.03596940264105797
0.3456269170556742,Acceleration_Z,0,3.82684904909499,1500,12.21500015258789,3.783257007598877,3.783257007598877,1500,0.3365570691425721,0.0,0.017000000923871994,0.10766580700874329,-0.09091779589653015,9.204230308532715,-0.018384359776973724,0.0695408433675766,0.01705216057598591
0.3456269170556742,Acceleration_Z,0,3.8588690931764473,1500,12.21500015258789,3.8120980262756348,3.8120980262756348,1500,0.33450198787829705,0.0,-0.2980000078678131,-0.16508756577968597,0.05981433764100075,8.821418762207031,0.040765322744846344,0.024246040731668472,0.05062360316514969
0.3456269170556742,Acceleration_Z,0,3.8665520809854232,1500,12.236000061035156,3.8254494667053223,3.8254494667053223,1500,0.3377391935313207,0.0,0.10300000011920929,0.007177720312029123,1.65566086769104,9.512872695922852,0.051955800503492355,-0.05222224071621895,0.04476192221045494
0.33050656080304974,Acceleration_Z,0,3.8001252354664405,1500,12.236000061035156,3.857738971710205,3.857738971710205,1500,0.3405078653301808,0.0,0.02800000086426735,0.23686477541923523,1.7059049606323242,10.479472160339355,0.015453520230948925,-0.092987559735775,0.0426304005086422
0.33050656080304974,Acceleration_Z,0,3.801035445151766,1500,12.232999801635742,3.865288019180298,3.865288019180298,1500,0.3386299257843737,0.0,-0.27000001072883606,0.3134271204471588,-0.5742176175117493,8.551057815551758,-0.013588440604507923,0.012789120897650719,0.05089004337787628
0.33050656080304974,Acceleration_Z,0,3.773362216194869,1500,12.232999801635742,3.7990262508392334,3.7990262508392334,1500,0.34026113770809835,0.0,-0.01899999938905239,-0.265575647354126,0.24643507599830627,9.417169570922852,-0.02664400078356266,-0.02477892115712166,0.030374161899089813
0.33050656080304974,Acceleration_Z,0,3.7382778423670873,1500,12.234999656677246,3.799647092819214,3.799647092819214,1500,0.3432393412336375,0.0,0.05000000074505806,0.5933582186698914,-1.3302708864212036,9.096564292907715,-0.010391159914433956,0.004263040143996477,0.0386338010430336
0.33050656080304974,Acceleration_Z,0,3.726763328161208,1500,12.234999656677246,3.77245831489563,3.77245831489563,1500,0.3401932646688676,0.0,-0.26100000739097595,-0.1698727160692215,0.6818834543228149,10.084697723388672,0.026910440996289253,0.022647401317954063,0.027976201847195625
0.33050656080304974,Acceleration_Z,0,3.6963168179150623,1500,12.234999656677246,3.7367727756500244,3.7367727756500244,1500,0.3414748175071135,0.0,-0.07599999755620956,0.1626949906349182,-0.6555651426315308,9.350176811218262,-0.006394560448825359,-0.005595240276306868,0.028775520622730255
0.33050656080304974,Acceleration_Z,0,3.6648753461877197,1500,12.234999656677246,3.7248775959014893,3.7248775959014893,1500,0.34308171027418394,0.0,0.052000001072883606,0.019140588119626045,0.16508756577968597,11.436501502990723,0.006661000195890665,0.04449548199772835,0.021048760041594505
0.33050656080304974,Acceleration_Z,0,3.652218296974365,1500,12.222999572753906,3.6940619945526123,3.6940619945526123,1500,0.340123500586016,0.0,-0.26100000739097595,1.0910135507583618,-1.081443190574646,9.249689102172852,0.08712588250637054,-0.051156483590602875,0.015453520230948925
0.33050656080304974,Acceleration_Z,0,3.620751689158632,1500,12.222999572753906,3.6635046005249023,3.6635046005249023,1500,0.34166037816751943,0.0,0.052000001072883606,-0.550291895866394,0.2560053765773773,9.850225448608398,-0.007460320368409157,0.07380387932062149,0.017851481214165688
0.33050656080304974,Acceleration_Z,0,3.6204780317619893,1500,12.22700023651123,3.651118278503418,3.651118278503418,1500,0.33680030872756456,0.0,-0.3240000009536743,-0.3445305824279785,0.138769268989563,8.876447677612305,-0.08792520314455032,0.041564639657735825,0.01625283993780613
0.33050656080304974,Acceleration_Z,0,3.5988890974725907,1500,12.22700023651123,3.6188526153564453,3.6188526153564453,1500,0.33752790820884415,0.0,-0.02800000086426735,0.021533161401748657,0.7656235098838806,9.780840873718262,0.09831636399030685,-0.05755104124546051,0.03250567987561226
0.33050656080304974,Acceleration_Z,0,3.591537966761452,1500,12.21500015258789,3.6186938285827637,3.6186938285827637,1500,0.33590425140112545,0.0,-0.10899999737739563,-0.2440425008535385,-0.7871567010879517,7.113121032714844,-0.11883224546909332,-0.12602612376213074,-0.017585041001439095
0.33050656080304974,Acceleration_Z,0,3.5938810245923705,1500,12.21500015258789,3.5966389179229736,3.5966389179229736,1500,0.33264954156753873,0.0,-0.19099999964237213,-1.0335917472839355,1.7728970050811768,9.295147895812988,0.06021544337272644,0.19023816287517548,0.04982428252696991
0.33050656080304974,Acceleration_Z,0,3.5838726364059466,1500,12.211999893188477,3.590667247772217,3.590667247772217,1500,0.33318276447419964,0.0,-0.00800000037997961,0.24882765114307404,-0.7177720665931702,9.630107879638672,0.021048760041594505,-0.051955800503492355,0.02504536136984825
0.33050656080304974,Acceleration_Z,0,3.594269166513479,1500,12.211999893188477,3.5923633575439453,3.5923633575439453,1500,0.32988546214314596,0.0,-0.26499998569488525,-0.1004880890250206,0.19140587747097015,9.046319961547852,-0.018650799989700317,0.024246040731668472,0.030640600249171257
0.33050656080304974,Acceleration_Z,0,3.591440640437554,1500,12.220999717712402,3.5814318656921387,3.5814318656921387,1500,0.3302132363599437,0.0,0.07400000095367432,0.19379845261573792,-0.8732893466949463,10.197148323059082,-0.01625283993780613,-0.006927440408617258,0.012522680684924126
0.33050656080304974,Acceleration_Z,0,3.6064862272630567,1500,12.220999717712402,3.593313217163086,3.593313217163086,1500,0.3273013444021568,0.0,-0.3160000145435333,-0.22250933945178986,-0.6316394209861755,10.467509269714355,0.02238096110522747,0.011723360046744347,0.039966002106666565
0.33050656080304974,Acceleration_Z,0,3.605126815740853,1500,12.218999862670898,3.5893313884735107,3.5893313884735107,1500,0.32858847528666757,0.0,0.061000000685453415,0.15551728010177612,-0.3588860332965851,10.395731925964355,-0.016785720363259315,-0.005861680023372173,0.017585041001439095
0.33050656080304974,Acceleration_Z,0,3.622494409095849,1500,12.218999862670898,3.604604959487915,3.604604959487915,1500,0.3261096175526799,0.0,-0.3070000112056732,0.277538537979126,-0.5024404525756836,9.539190292358398,0.01465420052409172,0.03836736083030701,0.020782319828867912
0.33050656080304974,Acceleration_Z,0,3.624786202351838,1500,12.234999656677246,3.60422682762146,3.60422682762146,1500,0.32726714307386606,0.0,0.061000000685453415,0.21054646372795105,-0.4163077771663666,9.335822105407715,0.04715988039970398,-0.008792520500719547,0.007460320368409157
0.33050656080304974,Acceleration_Z,0,3.6473202241835114,1500,12.234999656677246,3.621220111846924,3.621220111846924,1500,0.3243152694152023,0.0,-0.3070000112056732,-0.07177720218896866,-2.4810986518859863,6.775768280029297,-0.0500907227396965,0.08765876293182373,0.006394560448825359
0.33050656080304974,Acceleration_Z,0,3.661288883810222,1500,12.246999740600586,3.62307071685791,3.62307071685791,1500,0.32381983198118486,0.0,-0.0430000014603138,1.6532683372497559,-0.9929180145263672,9.656426429748535,0.027176881209015846,-0.0015986401122063398,0.002397960051894188
0.33050656080304974,Acceleration_Z,0,3.6777705230178177,1500,12.246999740600586,3.6451833248138428,3.6451833248138428,1500,0.32344007386094675,0.0,-0.18400000035762787,0.4210929274559021,1.2034645080566406,8.608479499816895,0.12975628674030304,-0.009858280420303345,0.03517008200287819
0.33050656080304974,Acceleration_Z,0,3.6847392577120854,1500,12.230999946594238,3.660806179046631,3.660806179046631,1500,0.32522165009076665,0.0,0.04600000008940697,0.6842760443687439,-0.6579577326774597,9.522442817687988,-0.0735374391078949,-0.05648528039455414,0.008792520500719547
0.33050656080304974,Acceleration_Z,0,3.7043166723217755,1500,12.230999946594238,3.6760950088500977,3.6760950088500977,1500,0.32393008032945353,0.0,-0.30300000309944153,0.8326155543327332,-0.6818834543228149,8.830988883972168,-0.012522680684924126,-0.03969956189393997,0.02744332142174244
0.33050656080304974,Acceleration_Z,0,3.7065405143057184,1500,12.204000473022461,3.6832351684570312,3.6832351684570312,1500,0.3263086164352146,0.0,0.09200000017881393,0.540721595287323,-0.7536606788635254,9.082208633422852,-0.0013322000158950686,0.007993199862539768,0.027709761634469032
0.33050656080304974,Acceleration_Z,0,3.7239353257559062,1500,12.204000473022461,3.7035751342773438,3.7035751342773438,1500,0.3250631862020738,0.0,-0.3440000116825104,0.48569241166114807,-0.3517082929611206,10.639774322509766,0.0031972802244126797,-0.005328800063580275,0.03437076136469841
0.33050656080304974,Acceleration_Z,0,3.7232501906367075,1500,12.220000267028809,3.705036163330078,3.705036163330078,1500,0.3275240544799904,0.0,0.11999999731779099,0.19619102776050568,0.2320796251296997,9.699493408203125,0.011190480552613735,0.0007993200561031699,0.03010772168636322
0.33050656080304974,Acceleration_Z,0,3.7369824047315636,1500,12.220000267028809,3.722008466720581,3.722008466720581,1500,0.3264822722984221,0.0,-0.3160000145435333,-0.6101062297821045,0.42348551750183105,9.651641845703125,0.050357162952423096,0.015187080949544907,0.04742632061243057
0.33050656080304974,Acceleration_Z,0,3.7455074141974123,1500,12.232999801635742,3.722569704055786,3.722569704055786,1500,0.3264188280032983,0.0,-0.19300000369548798,0.1196286752820015,0.2703607976436615,9.967461585998535,-0.015453520230948925,0.007993199862539768,0.022913841530680656
0.33050656080304974,Acceleration_Z,0,3.7418564752728734,1500,12.232999801635742,3.7344629764556885,3.7344629764556885,1500,0.32905808668443987,0.0,0.039000000804662704,0.4952627122402191,-0.5885730981826782,8.665901184082031,0.02397960051894188,0.036502283066511154,0.039966002106666565
0.33050656080304974,Acceleration_Z,0,3.749788651378625,1500,12.234000205993652,3.7432641983032227,3.7432641983032227,1500,0.3285291701855135,0.0,-0.30000001192092896,-0.07416977733373642,0.8326155543327332,9.754522323608398,0.037301599979400635,-0.029041960835456848,0.03703515976667404
0.31747731850936556,Acceleration_Z,0,3.680990308617355,1500,12.234000205993652,3.739866018295288,3.739866018295288,1500,0.33051311292405267,0.0,0.08699999749660492,-0.4402335286140442,0.07895492762327194,7.795004367828369,-0.026111120358109474,0.05914968252182007,0.02477892115712166
0.31747731850936556,Acceleration_Z,0,3.667063451655828,1500,12.241999626159668,3.7474122047424316,3.7474122047424316,1500,0.3298138881920103,0.0,-0.34599998593330383,-0.0023925735149532557,-0.7512680888175964,7.615561485290527,-0.05835036188364029,0.0026644000317901373,0.02158164046704769
0.31747731850936556,Acceleration_Z,0,3.6421098828480503,1500,12.241999626159668,3.679401159286499,3.679401159286499,1500,0.32911979999607427,0.0,-0.22300000488758087,-0.7440903782844543,1.3326634168624878,10.053593635559082,0.019450120627880096,-0.0173186007887125,0.027176881209015846
0.31747731850936556,Acceleration_Z,0,3.6022162498049646,1500,12.244000434875488,3.6663978099823,3.6663978099823,1500,0.3318307461424378,0.0,0.06300000101327896,0.004785147029906511,0.27993109822273254,8.220882415771484,-0.019450120627880096,-0.08765876293182373,0.0173186007887125
0.31747731850936556,Acceleration_Z,0,3.582564512662031,1500,12.244000434875488,3.6408894062042236,3.6408894062042236,1500,0.329668471481176,0.0,-0.289000004529953,0.5096181631088257,-0.4091300666332245,10.268925666809082,-0.004263040143996477,-0.027176881209015846,0.03890024125576019
0.31747731850936556,Acceleration_Z,0,3.544066949267346,1500,12.236000061035156,3.6011228561401367,3.6011228561401367,1500,0.33159712227851135,0.0,0.0430000014603138,-0.055029191076755524,-0.488085001707077,9.493731498718262,-0.003996599931269884,-0.021848080679774284,0.02238096110522747
0.31747731850936556,Acceleration_Z,0,3.531513003048649,1500,12.236000061035156,3.5807294845581055,3.5807294845581055,1500,0.3279546358263325,0.0,-0.2849999964237213,0.36127859354019165,-0.5120107531547546,8.292659759521484,-0.011456920765340328,0.016785720363259315,0.03596940264105797
0.31747731850936556,Acceleration_Z,0,3.499754616791956,1500,12.22700023651123,3.542433738708496,3.542433738708496,1500,0.3290418834753048,0.0,0.05700000002980232,0.2009761780500412,0.03828117623925209,10.204325675964355,-0.0021315200719982386,0.0,0.030374161899089813
0.31747731850936556,Acceleration_Z,0,3.492744666719817,1500,12.22700023651123,3.5305464267730713,3.5305464267730713,1500,0.3252978247287555,0.0,-0.28700000047683716,0.2512202262878418,-0.81586754322052,9.512872695922852,0.01198980025947094,0.028509080410003662,0.026377560570836067
0.31747731850936556,Acceleration_Z,0,3.465408126155034,1500,12.24899959564209,3.497769832611084,3.497769832611084,1500,0.3266907560258499,0.0,0.05400000140070915,0.239257350564003,0.045458897948265076,9.077424049377441,-0.03010772168636322,0.012522680684924126,0.030374161899089813
0.31747731850936556,Acceleration_Z,0,3.468231348417682,1500,12.24899959564209,3.490964889526367,3.490964889526367,1500,0.3220648056710123,0.0,-0.30300000309944153,0.34692317247390747,0.08374007046222687,9.139630317687988,0.03836736083030701,0.0426304005086422,0.029841281473636627
0.31747731850936556,Acceleration_Z,0,3.4483992980520446,1500,12.26099967956543,3.4637324810028076,3.4637324810028076,1500,0.32326156760613606,0.0,0.039000000804662704,-0.19619102776050568,0.03588860109448433,10.929275512695312,0.029841281473636627,-0.02238096110522747,0.029841281473636627
0.31747731850936556,Acceleration_Z,0,3.459514340069643,1500,12.26099967956543,3.4671380519866943,3.4671380519866943,1500,0.31848292959247304,0.0,-0.30300000309944153,0.2440425008535385,1.1221169233322144,9.407599449157715,-0.025578241795301437,0.062346961349248886,0.03437076136469841
0.31747731850936556,Acceleration_Z,0,3.456451751724726,1500,12.241000175476074,3.446181535720825,3.446181535720825,1500,0.3178603833424413,0.0,-0.026000000536441803,-0.20576132833957672,-0.7105943560600281,9.206623077392578,-0.015986399725079536,-0.00905896071344614,0.03836736083030701
0.31747731850936556,Acceleration_Z,0,3.4519343984776736,1500,12.241000175476074,3.458082675933838,3.458082675933838,1500,0.31851113857568264,0.0,0.00800000037997961,-0.03828117623925209,0.08852522075176239,9.689922332763672,0.019183680415153503,0.0010657600359991193,0.036502283066511154
0.31747731850936556,Acceleration_Z,0,3.467682960152413,1500,12.23900032043457,3.455817699432373,3.455817699432373,1500,0.31489165407729286,0.0,-0.2939999997615814,-0.07895492762327194,0.6842760443687439,9.807158470153809,-0.01065760012716055,-0.06314628571271896,0.03783448040485382
0.31747731850936556,Acceleration_Z,0,3.4659358659558097,1500,12.23900032043457,3.4507179260253906,3.4507179260253906,1500,0.3158544943538107,0.0,0.08699999749660492,0.2895013988018036,-0.37324145436286926,8.804670333862305,-0.014121320098638535,-0.02477892115712166,0.046094123274087906
0.31747731850936556,Acceleration_Z,0,3.487130026893251,1500,12.237000465393066,3.4654505252838135,3.4654505252838135,1500,0.31239434331437893,0.0,-0.3199999928474426,0.3086419701576233,0.021533161401748657,11.77385425567627,-0.007993199862539768,-0.01811792142689228,0.046893440186977386
0.31747731850936556,Acceleration_Z,0,3.4945648395947346,1500,12.237000465393066,3.4637510776519775,3.4637510776519775,1500,0.31264878483004177,0.0,0.06499999761581421,0.19858360290527344,0.689061164855957,8.701789855957031,-0.01198980025947094,-0.019450120627880096,0.026377560570836067
0.31747731850936556,Acceleration_Z,0,3.503377318299203,1500,12.25,3.4861457347869873,3.4861457347869873,1500,0.31311511496171396,0.0,-0.026000000536441803,0.5359364748001099,-0.4474112391471863,10.175615310668945,-0.04289684072136879,0.002397960051894188,0.031439922749996185
0.31747731850936556,Acceleration_Z,0,3.52407958971871,1500,12.25,3.4929513931274414,3.4929513931274414,1500,0.31094794625301997,0.0,-0.3109999895095825,0.4282706677913666,0.12919896841049194,10.144511222839355,0.006128120236098766,0.010391159914433956,0.03543652221560478
0.31747731850936556,Acceleration_Z,0,3.5292371458450016,1500,12.244999885559082,3.501729965209961,3.501729965209961,1500,0.312553680600963,0.0,0.09399999678134918,0.21772418916225433,0.16508756577968597,8.761604309082031,-0.025578241795301437,0.02051588147878647,0.024512480944395065
0.31747731850936556,Acceleration_Z,0,3.5503501709101424,1500,12.244999885559082,3.523838996887207,3.523838996887207,1500,0.3107520364548805,0.0,-0.3199999928474426,0.4282706677913666,-0.4067375063896179,10.302421569824219,0.01811792142689228,0.01332200039178133,0.030640600249171257
0.31747731850936556,Acceleration_Z,0,3.5560488072516807,1500,12.241999626159668,3.528076171875,3.528076171875,1500,0.31239980741300094,0.0,0.09200000017881393,0.2942865490913391,0.4330558180809021,9.347784996032715,0.02051588147878647,0.06900796294212341,0.03437076136469841
0.31747731850936556,Acceleration_Z,0,3.574926041930951,1500,12.241999626159668,3.5484795570373535,3.5484795570373535,1500,0.3111374369971711,0.0,-0.2759999930858612,0.83979332447052,-0.3828117549419403,8.735285758972168,0.016519280150532722,-0.005861680023372173,0.03010772168636322
0.31747731850936556,Acceleration_Z,0,3.5882417733868346,1500,12.220999717712402,3.555971384048462,3.555971384048462,1500,0.31111950104623276,0.0,-0.16599999368190765,-0.14833955466747284,0.31581971049308777,9.060675621032715,-0.0540873222053051,0.06367915868759155,0.021848080679774284
0.31747731850936556,Acceleration_Z,0,3.5953159546381714,1500,12.220999717712402,3.5729451179504395,3.5729451179504395,1500,0.3126085596690587,0.0,0.01899999938905239,0.3660637438297272,0.9522442817687988,10.304814338684082,0.060748323798179626,-0.03517008200287819,0.040765322744846344
0.31747731850936556,Acceleration_Z,0,3.6083906193737536,1500,12.241000175476074,3.5872929096221924,3.5872929096221924,1500,0.3124182079658497,0.0,-0.28299999237060547,-0.5239735841751099,-0.6483874320983887,8.596516609191895,-0.0213152002543211,0.021048760041594505,0.018650799989700317
0.31747731850936556,Acceleration_Z,0,3.6209835174618474,1500,12.230999946594238,3.594554901123047,3.594554901123047,1500,0.31237316231856616,0.0,-0.2669999897480011,0.38520434498786926,0.0,9.687530517578125,0.007993199862539768,-0.008792520500719547,0.035702962428331375
0.31747731850936556,Acceleration_Z,0,3.624084674060123,1500,12.230999946594238,3.6064460277557373,3.6064460277557373,1500,0.3140952626310297,0.0,0.03200000151991844,0.34692317247390747,0.09091779589653015,8.579768180847168,-0.003463720204308629,-0.038100920617580414,0.042363960295915604
0.31747731850936556,Acceleration_Z,0,3.63362803710378,1500,12.25100040435791,3.619149684906006,3.619149684906006,1500,0.313978590564262,0.0,-0.27399998903274536,0.2512202262878418,0.23686477541923523,8.357258796691895,-0.0031972802244126797,0.0231802798807621,0.029574841260910034
0.31747731850936556,Acceleration_Z,0,3.6352586092746795,1500,12.25100040435791,3.6225526332855225,3.6225526332855225,1500,0.31524763434480607,0.0,0.0,-0.34692317247390747,0.6579577326774597,8.237630844116211,0.01811792142689228,0.07247168570756912,0.04875852167606354
0.31747731850936556,Acceleration_Z,0,3.6379534371786746,1500,12.232999801635742,3.632521390914917,3.632521390914917,1500,0.31593493534717815,0.0,-0.19900000095367432,0.4163077771663666,1.1484352350234985,9.613360404968262,0.03250567987561226,0.02824264019727707,0.022913841530680656
0.31747731850936556,Acceleration_Z,0,3.6395327351017666,1500,12.232999801635742,3.6342203617095947,3.6342203617095947,1500,0.3164384330906238,0.0,-0.13099999725818634,-0.0813474953174591,0.08852522075176239,9.888505935668945,0.015453520230948925,-0.0010657600359991193,0.029841281473636627
0.31747731850936556,Acceleration_Z,0,3.6369120656371554,1500,12.258000373840332,3.636539936065674,3.636539936065674,1500,0.3175436637258161,0.0,-0.10899999737739563,-0.5885730981826782,0.679490864276886,8.567805290222168,0.03330500051379204,0.051156483590602875,0.009325399994850159
0.29253549127672823,Acceleration_Z,0,3.5183506485480756,1500,12.258000373840332,3.638242721557617,3.638242721557617,1500,0.3171941871431772,0.0,-0.18799999356269836,-0.19619102776050568,0.6148914098739624,9.835869789123535,0.024512480944395065,0.02158164046704769,0.020249441266059875
0.29253549127672823,Acceleration_Z,0,3.4808071049251184,1500,12.26300048828125,3.6346168518066406,3.6346168518066406,1500,0.31754954649446976,0.0,-0.18799999356269836,-0.3899894952774048,1.0910135507583618,10.024883270263672,-0.023713160306215286,0.034637201577425,0.01198980025947094
0.29253549127672823,Acceleration_Z,0,3.4237802815881624,1500,12.26300048828125,3.517096519470215,3.517096519470215,1500,0.3177678796198275,0.0,-0.05000000074505806,0.27993109822273254,1.5264618396759033,11.383864402770996,0.07886624336242676,-0.012256240472197533,0.029041960835456848
0.29253549127672823,Acceleration_Z,0,3.36866225058353,1500,12.229999542236328,3.478755474090576,3.478755474090576,1500,0.3174509820981004,0.0,-0.2280000001192093,0.11245095729827881,-0.7082017660140991,10.682840347290039,0.006927440408617258,0.04023244231939316,-0.019183680415153503
0.29253549127672823,Acceleration_Z,0,3.3098252172984983,1500,12.229999542236328,3.422701358795166,3.422701358795166,1500,0.3179810497891217,0.0,0.05900000035762787,0.11005838215351105,-0.9378888010978699,10.211503982543945,-0.03969956189393997,-0.026377560570836067,0.02744332142174244
0.29253549127672823,Acceleration_Z,0,3.2611963373555435,1500,12.230999946594238,3.366922378540039,3.366922378540039,1500,0.31629177733830904,0.0,-0.3070000112056732,-0.138769268989563,-0.12919896841049194,9.055891036987305,-0.007460320368409157,-0.005861680023372173,0.025578241795301437
0.29253549127672823,Acceleration_Z,0,3.204681341707877,1500,12.230999946594238,3.3074662685394287,3.3074662685394287,1500,0.3166338760308369,0.0,0.05000000074505806,-0.543114185333252,0.24882765114307404,8.352474212646484,0.006394560448825359,-0.0005328800179995596,0.022647401317954063
0.29253549127672823,Acceleration_Z,0,3.165958287133081,1500,12.218000411987305,3.2598304748535156,3.2598304748535156,1500,0.31349693007121304,0.0,-0.27799999713897705,-0.019140588119626045,-0.19140587747097015,8.615656852722168,0.022913841530680656,-0.010924040339887142,0.02584468014538288
0.29253549127672823,Acceleration_Z,0,3.1340712608396273,1500,12.218000411987305,3.202134370803833,3.202134370803833,1500,0.30982864276636757,0.0,-0.20399999618530273,-0.09091779589653015,0.14594697952270508,10.209111213684082,0.027709761634469032,0.029841281473636627,0.039966002106666565
0.29253549127672823,Acceleration_Z,0,3.0981207197491734,1500,12.220999717712402,3.1638810634613037,3.1638810634613037,1500,0.3086192103660844,0.0,0.06499999761581421,0.10766580700874329,-0.265575647354126,9.816729545593262,0.028775520622730255,0.03543652221560478,0.039166681468486786
0.29253549127672823,Acceleration_Z,0,3.068411533539311,1500,12.220999717712402,3.133328437805176,3.133328437805176,1500,0.3070851777329374,0.0,0.03500000014901161,0.38759690523147583,-0.6244617104530334,9.630107879638672,-0.020782319828867912,0.031173480674624443,0.01971656084060669
0.29253549127672823,Acceleration_Z,0,3.059336083127964,1500,12.222000122070312,3.0962400436401367,3.0962400436401367,1500,0.30195165890567705,0.0,-0.27399998903274536,0.16508756577968597,0.11484352499246597,8.670686721801758,0.036502283066511154,0.0029308400116860867,0.038100920617580414
0.29253549127672823,Acceleration_Z,0,3.0673164119290734,1500,12.222000122070312,3.067382574081421,3.067382574081421,1500,0.29509098844075576,0.0,-0.2630000114440918,0.1507321298122406,-0.39955976605415344,10.127763748168945,0.004795920103788376,0.0500907227396965,0.043429721146821976
0.29253549127672823,Acceleration_Z,0,3.080361916309475,1500,12.22599983215332,3.0581979751586914,3.0581979751586914,1500,0.29008410637254184,0.0,-0.13099999725818634,0.0023925735149532557,0.13637669384479523,9.866972923278809,-0.00905896071344614,0.020782319828867912,0.04742632061243057
0.29253549127672823,Acceleration_Z,0,3.090013130933128,1500,12.22599983215332,3.066688299179077,3.066688299179077,1500,0.2884051047861157,0.0,0.01899999938905239,-0.10288066416978836,-0.19379845261573792,8.206526756286621,-0.035702962428331375,0.012256240472197533,0.015986399725079536
0.29253549127672823,Acceleration_Z,0,3.0974256005635046,1500,12.239999771118164,3.078699827194214,3.078699827194214,1500,0.2885158263315174,0.0,0.04800000041723251,0.4832998514175415,0.3947746157646179,10.273710250854492,0.034637201577425,-0.0658106803894043,0.015453520230948925
0.29253549127672823,Acceleration_Z,0,3.1069610800161556,1500,12.239999771118164,3.088900089263916,3.088900089263916,1500,0.28843437737558336,0.0,0.052000001072883606,-0.08852522075176239,-0.19858360290527344,8.840559005737305,-0.027976201847195625,0.0386338010430336,0.01705216057598591
0.29253549127672823,Acceleration_Z,0,3.1177398064024273,1500,12.222999572753906,3.0964932441711426,3.0964932441711426,1500,0.2881005690848201,0.0,-0.026000000536441803,0.3014642596244812,0.5455067753791809,10.113408088684082,-0.018650799989700317,-0.04049888253211975,0.010391159914433956
0.29253549127672823,Acceleration_Z,0,3.1443271541292432,1500,12.222999572753906,3.1049816608428955,3.1049816608428955,1500,0.28462162967040555,0.0,-0.30300000309944153,0.2129390388727188,0.04067374765872955,10.166045188903809,-0.036502283066511154,-0.02930840104818344,0.01625283993780613
0.29253549127672823,Acceleration_Z,0,3.176444326016741,1500,12.243000030517578,3.1151633262634277,3.1151633262634277,1500,0.28109298536865573,0.0,-0.3160000145435333,0.4904775619506836,0.35410088300704956,9.197052955627441,-0.0005328800179995596,-0.04023244231939316,0.031439922749996185
0.29253549127672823,Acceleration_Z,0,3.212466359068964,1500,12.243000030517578,3.1423699855804443,3.1423699855804443,1500,0.27839502838359825,0.0,-0.2150000035762787,0.22250933945178986,0.2320796251296997,9.723418235778809,-0.014121320098638535,-0.051955800503492355,0.03250567987561226
0.29253549127672823,Acceleration_Z,0,3.234619377312571,1500,12.22700023651123,3.175623655319214,3.175623655319214,1500,0.2799391906024707,0.0,0.05400000140070915,0.27275338768959045,0.24643507599830627,10.304814338684082,0.003996599931269884,-0.009858280420303345,0.02824264019727707
0.29253549127672823,Acceleration_Z,0,3.257517271875179,1500,12.22700023651123,3.2112858295440674,3.2112858295440674,1500,0.28132179899838816,0.0,0.07400000095367432,0.4450186789035797,-0.2631830871105194,9.764092445373535,0.0010657600359991193,0.0037301601842045784,0.02824264019727707
0.29253549127672823,Acceleration_Z,0,3.274202952488859,1500,12.24899959564209,3.232374906539917,3.232374906539917,1500,0.28330797566029814,0.0,0.061000000685453415,0.1315915435552597,0.6531725525856018,10.534501075744629,0.018384359776973724,0.02051588147878647,0.011456920765340328
0.29253549127672823,Acceleration_Z,0,3.303813300505985,1500,12.24899959564209,3.256192445755005,3.256192445755005,1500,0.28180997387738044,0.0,-0.2849999964237213,0.540721595287323,-0.028710881248116493,9.811944007873535,-0.0021315200719982386,-0.0015986401122063398,0.002397960051894188
0.3328191257665156,Acceleration_Z,0,3.5295574217463166,1500,12.211999893188477,3.2734944820404053,3.2734944820404053,1500,0.2802865232377853,0.0,-0.32199999690055847,0.3062494099140167,-0.8086898326873779,8.756818771362305,-0.00905896071344614,-0.02477892115712166,0.02238096110522747
0.3328191257665156,Acceleration_Z,0,3.603170741484381,1500,12.211999893188477,3.30232834815979,3.30232834815979,1500,0.28259149623533153,0.0,0.029999999329447746,0.13637669384479523,0.07656235247850418,10.228251457214355,0.019983001053333282,0.007993199862539768,0.01065760012716055
0.3328191257665156,Acceleration_Z,0,3.7017898079061147,1500,12.232999801635742,3.5288808345794678,3.5288808345794678,1500,0.2859365409662676,0.0,0.05700000002980232,0.42348551750183105,0.6675280332565308,8.929084777832031,0.018384359776973724,0.0005328800179995596,0.033038560301065445
0.3328191257665156,Acceleration_Z,0,3.805308398031881,1500,12.232999801635742,3.6019387245178223,3.6019387245178223,1500,0.28688191148051884,0.0,-0.33799999952316284,0.5813953876495361,0.265575647354126,9.285577774047852,0.036502283066511154,-0.015187080949544907,0.023446720093488693
0.3328191257665156,Acceleration_Z,0,3.887807703771808,1500,12.255999565124512,3.7006309032440186,3.7006309032440186,1500,0.2913516387573111,0.0,-0.08299999684095383,0.5813953876495361,0.1698727160692215,9.488946914672852,0.03943312168121338,-0.02238096110522747,0.03010772168636322
0.3328191257665156,Acceleration_Z,0,3.9558903637591842,1500,12.255999565124512,3.804466485977173,3.804466485977173,1500,0.2972808767067062,0.0,-0.15299999713897705,0.552684485912323,-1.0766581296920776,9.063068389892578,-0.003463720204308629,0.033837880939245224,0.019450120627880096
0.3328191257665156,Acceleration_Z,0,3.9938598857647087,1500,12.251999855041504,3.8866066932678223,3.8866066932678223,1500,0.3069181944818117,0.0,0.07199999690055847,0.6603502631187439,-0.09091779589653015,9.933964729309082,-0.03890024125576019,-0.0540873222053051,0.033837880939245224
0.3328191257665156,Acceleration_Z,0,4.031965035844052,1500,12.251999855041504,3.9546732902526855,3.9546732902526855,1500,0.3126771099212175,0.0,-0.34200000762939453,0.6196765303611755,-0.3971672058105469,8.830988883972168,0.033837880939245224,-0.013854880817234516,0.034903641790151596
0.3328191257665156,Acceleration_Z,0,4.030864674335253,1500,12.25,3.9914584159851074,3.9914584159851074,1500,0.32319479147403424,0.0,-0.006000000052154064,-0.3588860332965851,1.0455546379089355,9.194660186767578,-0.008792520500719547,-0.013588440604507923,0.040765322744846344
0.3328191257665156,Acceleration_Z,0,4.005000738190176,1500,12.25,4.030590057373047,4.030590057373047,1500,0.3347271961510653,0.0,0.10300000011920929,0.5191884636878967,0.33017513155937195,9.843047142028809,-0.01065760012716055,0.00905896071344614,0.03437076136469841
0.3328191257665156,Acceleration_Z,0,3.998198619377571,1500,12.239999771118164,4.0289998054504395,4.0289998054504395,1500,0.33714758366176195,0.0,-0.28700000047683716,0.11005838215351105,-0.6412097215652466,9.307110786437988,0.046893440186977386,0.06367915868759155,0.03756804019212723
0.3328191257665156,Acceleration_Z,0,3.981093267492881,1500,12.239999771118164,4.003499984741211,4.003499984741211,1500,0.3390639109379469,0.0,-0.31299999356269836,0.6053211092948914,-0.29189395904541016,9.756915092468262,-0.03517008200287819,0.013055560179054737,0.011723360046744347
0.3328191257665156,Acceleration_Z,0,3.953268248551647,1500,12.230999946594238,3.9971587657928467,3.9971587657928467,1500,0.34222072376701,0.0,-0.1420000046491623,0.6388171315193176,0.2895013988018036,9.637286186218262,0.012789120897650719,-0.0173186007887125,0.013055560179054737
0.3328191257665156,Acceleration_Z,0,3.902782648790089,1500,12.230999946594238,3.9801712036132812,3.9801712036132812,1500,0.34879366227113684,0.0,0.08100000023841858,0.543114185333252,-0.8230453133583069,8.024691581726074,-0.019450120627880096,0.0618140809237957,0.015187080949544907
0.3328191257665156,Acceleration_Z,0,3.851559848771605,1500,12.23799991607666,3.9518542289733887,3.9518542289733887,1500,0.3530264335383405,0.0,-0.07199999690055847,0.24882765114307404,-1.7657192945480347,7.591635704040527,-0.06394559890031815,0.07167236506938934,0.012522680684924126
0.3328191257665156,Acceleration_Z,0,3.810526194989632,1500,12.23799991607666,3.900862455368042,3.900862455368042,1500,0.35280612430473535,0.0,-0.33500000834465027,0.48569241166114807,1.3446263074874878,8.945832252502441,0.04795920103788376,-0.06421203911304474,0.005062360316514969
0.3328191257665156,Acceleration_Z,0,3.7721438046001508,1500,12.241999626159668,3.849428653717041,3.849428653717041,1500,0.3514121848263496,0.0,-0.26499998569488525,-0.552684485912323,0.5239735841751099,9.108527183532715,-0.013588440604507923,0.036502283066511154,0.0018650800921022892
0.3328191257665156,Acceleration_Z,0,3.7200135545028945,1500,12.241999626159668,3.808622121810913,3.808622121810913,1500,0.3533111452262884,0.0,0.03200000151991844,-0.3325677216053009,0.9618145227432251,9.053498268127441,-0.0772676020860672,-0.0213152002543211,0.024246040731668472
0.3328191257665156,Acceleration_Z,0,3.686830629508144,1500,12.244000434875488,3.770131826400757,3.770131826400757,1500,0.3501025020485694,0.0,-0.34599998593330383,0.18422816693782806,-0.7871567010879517,10.012920379638672,-0.010924040339887142,-0.059682562947273254,0.003996599931269884
0.3328191257665156,Acceleration_Z,0,3.652925351391215,1500,12.241000175476074,3.7182040214538574,3.7182040214538574,1500,0.3485975565866258,0.0,-0.07900000363588333,-0.43066322803497314,0.48569241166114807,10.520145416259766,-0.024512480944395065,-0.0015986401122063398,0.020249441266059875
0.3328191257665156,Acceleration_Z,0,3.6136397317227402,1500,12.241000175476074,3.6842010021209717,3.6842010021209717,1500,0.34912666582094043,0.0,0.06499999761581421,0.12441382557153702,-0.29907169938087463,9.012824058532715,0.0231802798807621,0.023713160306215286,0.015453520230948925
0.3328191257665156,Acceleration_Z,0,3.5984420249106748,1500,12.239999771118164,3.651599884033203,3.651599884033203,1500,0.3447843212896963,0.0,-0.3070000112056732,-0.5096181631088257,0.14594697952270508,11.388649940490723,-0.033038560301065445,0.02584468014538288,0.023713160306215286
0.3328191257665156,Acceleration_Z,0,3.5694439639132245,1500,12.239999771118164,3.612499952316284,3.612499952316284,1500,0.3444946748966865,0.0,0.05400000140070915,0.42348551750183105,-0.806297242641449,8.156283378601074,0.013055560179054737,-0.01705216057598591,-0.0031972802244126797
0.3328191257665156,Acceleration_Z,0,3.5653761433845115,1500,12.23799991607666,3.5966122150421143,3.5966122150421143,1500,0.33986973014962846,0.0,-0.29600000381469727,-0.014355440624058247,-0.14594697952270508,7.479184627532959,0.018650799989700317,0.06101476028561592,0.014121320098638535
0.3328191257665156,Acceleration_Z,0,3.5521753823350455,1500,12.23799991607666,3.5677170753479004,3.5677170753479004,1500,0.33855733504225516,0.0,0.052000001072883606,0.24882765114307404,0.0813474953174591,6.467126369476318,-0.052755121141672134,0.07273812592029572,0.013055560179054737
0.3328191257665156,Acceleration_Z,0,3.557404375114782,1500,12.223999977111816,3.5636355876922607,3.5636355876922607,1500,0.3346007354638212,0.0,-0.32899999618530273,-0.12919896841049194,0.11723610013723373,8.900373458862305,0.09565196186304092,-0.0695408433675766,0.03596940264105797
0.3328191257665156,Acceleration_Z,0,3.5507254659685543,1500,12.223999977111816,3.551751136779785,3.551751136779785,1500,0.3344988363422912,0.0,0.09399999678134918,0.09809551388025284,-0.339745432138443,8.761604309082031,0.005062360316514969,0.032239239662885666,0.0029308400116860867
0.3328191257665156,Acceleration_Z,0,3.5649134156011835,1500,12.255000114440918,3.555652141571045,3.555652141571045,1500,0.33077721153596495,0.0,-0.3109999895095825,0.2895013988018036,-0.691453754901886,9.244903564453125,-0.013854880817234516,-0.02824264019727707,0.006394560448825359
0.3328191257665156,Acceleration_Z,0,3.5640076598625856,1500,12.255000114440918,3.5488438606262207,3.5488438606262207,1500,0.3312973893501238,0.0,0.061000000685453415,0.15551728010177612,-1.0479471683502197,8.955402374267578,-0.027976201847195625,-0.03676871955394745,0.012789120897650719
0.3328191257665156,Acceleration_Z,0,3.5882745998211494,1500,12.201000213623047,3.563708782196045,3.563708782196045,1500,0.3270853383956821,0.0,-0.31299999356269836,0.38759690523147583,-0.6507799625396729,7.821322917938232,-0.02744332142174244,0.010924040339887142,-0.003463720204308629
0.3328191257665156,Acceleration_Z,0,3.5907061452976823,1500,12.201000213623047,3.563708782196045,3.563708782196045,1500,0.32854888159494716,0.0,0.03500000014901161,0.7536606788635254,0.011962867341935635,7.716049671173096,-0.008792520500719547,-0.07886624336242676,-0.004795920103788376
0.3328191257665156,Acceleration_Z,0,3.6198489414834794,1500,12.270000457763672,3.587270975112915,3.587270975112915,1500,0.32476073184596416,0.0,-0.3089999854564667,-0.011962867341935635,-0.24164992570877075,7.531821250915527,-0.02158164046704769,-0.0026644000317901373,0.01625283993780613
0.3328191257665156,Acceleration_Z,0,3.6274405873920292,1500,12.270000457763672,3.588975191116333,3.588975191116333,1500,0.3263112592081811,0.0,0.061000000685453415,-0.3253899812698364,0.2129390388727188,8.610872268676758,0.0037301601842045784,0.021048760041594505,-0.0013322000158950686
0.3328191257665156,Acceleration_Z,0,3.662674069885417,1500,12.222999572753906,3.617668390274048,3.617668390274048,1500,0.3223201120605101,0.0,-0.3070000112056732,0.17465786635875702,-0.6220691204071045,7.725619792938232,-0.03756804019212723,0.01065760012716055,0.0077267601154744625
0.3328191257665156,Acceleration_Z,0,3.6700444143096886,1500,12.222999572753906,3.6261563301086426,3.6261563301086426,1500,0.32501535984261243,0.0,0.01899999938905239,-0.5335438847541809,-0.17705044150352478,8.251985549926758,0.0015986401122063398,-0.01811792142689228,-0.014387760311365128
0.3328191257665156,Acceleration_Z,0,3.7054787020398576,1500,12.23799991607666,3.6612017154693604,3.6612017154693604,1500,0.3217727543011099,0.0,-0.2849999964237213,-0.9594219923019409,-0.28710880875587463,9.314289093017578,0.021848080679774284,0.08685944229364395,0.0037301601842045784
0.3328191257665156,Acceleration_Z,0,3.7148755546529766,1500,12.23799991607666,3.6697001457214355,3.6697001457214355,1500,0.32442649677514784,0.0,0.004000000189989805,-0.10766580700874329,-0.06699205935001373,9.321466445922852,-0.029574841260910034,0.08419504016637802,0.005595240276306868
0.3328191257665156,Acceleration_Z,0,3.7428919795919735,1500,12.229000091552734,3.7043678760528564,3.7043678760528564,1500,0.32297877073661324,0.0,-0.2919999957084656,-0.6292468309402466,-0.5096181631088257,9.448272705078125,0.06714288145303726,-0.021048760041594505,0.025578241795301437
0.3328191257665156,Acceleration_Z,0,3.7468367520572228,1500,12.229000091552734,3.712860345840454,3.712860345840454,1500,0.32649326076404,0.0,0.05900000035762787,-0.27275338768959045,0.9905254244804382,8.694612503051758,0.015453520230948925,0.042363960295915604,-0.009591840207576752
0.3328191257665156,Acceleration_Z,0,3.769207102885272,1500,12.232000350952148,3.7409534454345703,3.7409534454345703,1500,0.32539519350589746,0.0,-0.26499998569488525,0.2895013988018036,0.5191884636878967,8.371614456176758,-0.011190480552613735,-0.0173186007887125,0.0010657600359991193
0.3328191257665156,Acceleration_Z,0,3.77633355619451,1500,12.232000350952148,3.7443511486053467,3.7443511486053467,1500,0.32718898663004164,0.0,-0.08500000089406967,0.14594697952270508,-1.2895971536636353,9.448272705078125,-0.027176881209015846,-0.031439922749996185,0.017851481214165688
0.3328191257665156,Acceleration_Z,0,3.7759853342345018,1500,12.232999801635742,3.7684435844421387,3.7684435844421387,1500,0.3301681495792043,0.0,-0.014999999664723873,-0.22729448974132538,1.251315951347351,9.890898704528809,-0.00905896071344614,0.010391159914433956,0.0015986401122063398
0.3328191257665156,Acceleration_Z,0,3.7898285877056974,1500,12.232999801635742,3.7752394676208496,3.7752394676208496,1500,0.3290357356334141,0.0,-0.23399999737739563,0.12202125042676926,0.5957508087158203,8.381184577941895,0.04875852167606354,-0.08286283910274506,0.026377560570836067
0.3328191257665156,Acceleration_Z,0,3.778941168064405,1500,12.229000091552734,3.774005174636841,3.774005174636841,1500,0.33284872262416,0.0,0.013000000268220901,0.1698727160692215,-0.7440903782844543,9.548760414123535,-0.030374161899089813,0.011190480552613735,0.009591840207576752
0.2819457241645544,Acceleration_Z,0,3.5445223916417774,1500,12.229000091552734,3.787593126296997,3.787593126296997,1500,0.33091925496838587,0.0,-0.2809999883174896,0.22968704998493195,0.6962388753890991,10.898172378540039,-0.006128120236098766,0.018384359776973724,0.0
0.2819457241645544,Acceleration_Z,0,3.4734694081434707,1500,12.237000465393066,3.7764742374420166,3.7764742374420166,1500,0.3309319733048626,0.0,-0.2720000147819519,0.29907169938087463,-0.34692317247390747,7.273423671722412,-0.027176881209015846,0.007193880155682564,0.015986399725079536
0.2819457241645544,Acceleration_Z,0,3.352539307564252,1500,12.237000465393066,3.5436315536499023,3.5436315536499023,1500,0.3331203842190562,0.0,0.014999999664723873,0.3134271204471588,0.6531725525856018,10.491435050964355,0.015719961374998093,0.011456920765340328,0.007460320368409157
0.2819457241645544,Acceleration_Z,0,3.2564450192058807,1500,12.225000381469727,3.4722394943237305,3.4722394943237305,1500,0.3295894001677944,0.0,-0.2809999883174896,-0.43784093856811523,-0.31103456020355225,9.388458251953125,-0.0029308400116860867,0.0426304005086422,0.008259640075266361
0.2819457241645544,Acceleration_Z,0,3.147503995592044,1500,12.225000381469727,3.3516876697540283,3.3516876697540283,1500,0.32934160725818573,0.0,0.0,0.3086419701576233,-0.7345200777053833,8.883625030517578,-0.00905896071344614,0.051955800503492355,0.021848080679774284
0.2819457241645544,Acceleration_Z,0,3.060283992922565,1500,12.22599983215332,3.2551724910736084,3.2551724910736084,1500,0.325316277656693,0.0,-0.22300000488758087,-0.07416977733373642,0.11245095729827881,10.577567100524902,0.09804992377758026,-0.09804992377758026,0.017851481214165688
0.2819457241645544,Acceleration_Z,0,2.9925949113354764,1500,12.22599983215332,3.1464967727661133,3.1464967727661133,1500,0.3184767087939609,0.0,-0.2150000035762787,0.3588860332965851,-0.6603502631187439,9.338213920593262,0.048492081463336945,0.034903641790151596,0.0007993200561031699
0.2819457241645544,Acceleration_Z,0,2.9186884075981934,1500,12.222999572753906,3.059145212173462,3.059145212173462,1500,0.3156429050379398,0.0,0.029999999329447746,0.38520434498786926,-0.5215809941291809,9.735381126403809,-0.0540873222053051,-0.06527779996395111,-0.0013322000158950686
0.2819457241645544,Acceleration_Z,0,2.8603095716571154,1500,12.222999572753906,2.9912397861480713,2.9912397861480713,1500,0.3115791134394247,0.0,0.0,-0.021533161401748657,0.11484352499246597,9.654033660888672,-0.05755104124546051,-0.006128120236098766,0.005595240276306868
0.2819457241645544,Acceleration_Z,0,2.8292248746992703,1500,12.218000411987305,2.9170475006103516,2.9170475006103516,1500,0.30357045098920743,0.0,-0.1550000011920929,-0.004785147029906511,-0.05263661593198776,9.689922332763672,0.0037301601842045784,0.004795920103788376,0.007460320368409157
0.2819457241645544,Acceleration_Z,0,2.8285885723387647,1500,12.218000411987305,2.859351396560669,2.859351396560669,1500,0.2923458262302604,0.0,-0.26100000739097595,0.06459948420524597,0.34931573271751404,8.137142181396484,0.018384359776973724,0.033837880939245224,0.009591840207576752
0.2819457241645544,Acceleration_Z,0,2.8630369743981063,1500,12.236000061035156,2.8278753757476807,2.8278753757476807,1500,0.27856794430698983,0.0,-0.3050000071525574,0.22729448974132538,-0.19858360290527344,8.610872268676758,0.007993199862539768,-0.020782319828867912,0.00905896071344614
0.2819457241645544,Acceleration_Z,0,2.9138333692932608,1500,12.236000061035156,2.8278753757476807,2.8278753757476807,1500,0.26738456004315064,0.0,-0.23899999260902405,-0.14833955466747284,-0.4713369905948639,10.479472160339355,-0.03410432115197182,-0.01332200039178133,0.002397960051894188
0.2819457241645544,Acceleration_Z,0,2.968154955800159,1500,12.23900032043457,2.8625662326812744,2.8625662326812744,1500,0.26110093823483604,0.0,-0.08500000089406967,0.7440903782844543,0.004785147029906511,9.402813911437988,0.0077267601154744625,0.014121320098638535,0.01065760012716055
0.2819457241645544,Acceleration_Z,0,3.0061106114192433,1500,12.23900032043457,2.9118621349334717,2.9118621349334717,1500,0.26190952980348703,0.0,0.013000000268220901,0.3588860332965851,0.09570293873548508,9.024786949157715,-0.007193880155682564,0.04023244231939316,0.024512480944395065
0.2819457241645544,Acceleration_Z,0,3.047390937892083,1500,12.236000061035156,2.9672300815582275,2.9672300815582275,1500,0.2628266887483738,0.0,0.0,0.6436022520065308,0.19619102776050568,10.642167091369629,0.002397960051894188,0.01625283993780613,0.031173480674624443
0.2819457241645544,Acceleration_Z,0,3.0872511558572526,1500,12.236000061035156,3.004617691040039,3.004617691040039,1500,0.26362266591094047,0.0,0.04800000041723251,0.7153794765472412,-0.9857403039932251,10.053593635559082,-0.0007993200561031699,-0.003463720204308629,0.0015986401122063398
0.2819457241645544,Acceleration_Z,0,3.123169586835656,1500,12.232000350952148,3.046107769012451,3.046107769012451,1500,0.2648557057873204,0.0,0.04100000113248825,0.5120107531547546,-0.17226529121398926,9.701885223388672,-0.0013322000158950686,0.038100920617580414,0.02584468014538288
0.2819457241645544,Acceleration_Z,0,3.157255635710227,1500,12.232000350952148,3.0851821899414062,3.0851821899414062,1500,0.26595858150042434,0.0,-0.0020000000949949026,0.5837879180908203,-0.29907169938087463,8.330941200256348,-0.031439922749996185,0.04316328093409538,0.016785720363259315
0.2819457241645544,Acceleration_Z,0,3.182902622020505,1500,12.232999801635742,3.1228129863739014,3.1228129863739014,1500,0.26826775741737063,0.0,0.020999999716877937,-0.055029191076755524,-0.04067374765872955,8.232845306396484,0.047692760825157166,-0.012256240472197533,0.02930840104818344
0.2819457241645544,Acceleration_Z,0,3.214316048544177,1500,12.232999801635742,3.1567935943603516,3.1567935943603516,1500,0.26852300663015205,0.0,-0.1860000044107437,0.41152265667915344,0.488085001707077,10.115800857543945,0.05515308305621147,-0.05941612273454666,0.013588440604507923
0.2819457241645544,Acceleration_Z,0,3.2488464523985123,1500,12.232000350952148,3.1803200244903564,3.1803200244903564,1500,0.26766950892144764,0.0,-0.31299999356269836,0.49287015199661255,0.1196286752820015,9.063068389892578,0.019183680415153503,0.008526080287992954,0.012256240472197533
0.2819457241645544,Acceleration_Z,0,3.281874680749243,1500,12.232000350952148,3.212599039077759,3.212599039077759,1500,0.2673385693317238,0.0,-0.2980000078678131,0.5455067753791809,-0.0023925735149532557,8.450569152832031,-0.03090704046189785,-0.03090704046189785,0.0037301601842045784
0.2819457241645544,Acceleration_Z,0,3.300873806420843,1500,12.229999542236328,3.24774432182312,3.24774432182312,1500,0.27013908905756223,0.0,0.03500000014901161,0.43784093856811523,-0.5766102075576782,9.630107879638672,-0.04529480263590813,-0.01705216057598591,0.020782319828867912
0.2819457241645544,Acceleration_Z,0,3.3122154596956057,1500,12.229999542236328,3.280017852783203,3.280017852783203,1500,0.27374285756375255,0.0,0.06800000369548798,0.10527323186397552,0.11245095729827881,10.682840347290039,-0.0213152002543211,-0.0029308400116860867,0.01198980025947094
0.2819457241645544,Acceleration_Z,0,3.335211700911119,1500,12.236000061035156,3.298621654510498,3.298621654510498,1500,0.27378104112109164,0.0,-0.34200000762939453,0.26796823740005493,0.5742176175117493,10.158866882324219,-0.0015986401122063398,-0.015719961374998093,0.012789120897650719
0.2819457241645544,Acceleration_Z,0,3.3427703528402133,1500,12.244000434875488,3.3109817504882812,3.3109817504882812,1500,0.27601364227849384,0.0,-0.061000000685453415,0.32299742102622986,0.4067375063896179,7.7758636474609375,0.032239239662885666,0.016785720363259315,0.005861680023372173
0.2819457241645544,Acceleration_Z,0,3.340094801784255,1500,12.244000434875488,3.334789514541626,3.334789514541626,1500,0.27968700040675465,0.0,0.052000001072883606,0.2895013988018036,-0.2560053765773773,9.687530517578125,-0.011456920765340328,0.020782319828867912,0.006927440408617258
0.2819457241645544,Acceleration_Z,0,3.335929053872018,1500,12.229000091552734,3.340894937515259,3.340894937515259,1500,0.28219923727979157,0.0,-0.15800000727176666,-0.1890133023262024,-0.22729448974132538,8.206526756286621,-0.005861680023372173,-0.013854880817234516,0.012522680684924126
0.2819457241645544,Acceleration_Z,0,3.3405540759236163,1500,12.229000091552734,3.3391964435577393,3.3391964435577393,1500,0.281542448794987,0.0,-0.3199999928474426,0.34213802218437195,-0.22490191459655762,10.795291900634766,0.014121320098638535,-0.030374161899089813,0.0026644000317901373
0.2819457241645544,Acceleration_Z,0,3.3248529800228885,1500,12.244999885559082,3.3333609104156494,3.3333609104156494,1500,0.28485813117480596,0.0,0.02800000086426735,0.42348551750183105,0.3253899812698364,8.907550811767578,0.015719961374998093,0.03517008200287819,0.005861680023372173
0.2819457241645544,Acceleration_Z,0,3.3051052708587325,1500,12.244999885559082,3.338463306427002,3.338463306427002,1500,0.2881254869972516,0.0,0.024000000208616257,0.5215809941291809,-1.0718729496002197,8.888410568237305,-0.04103176295757294,0.022647401317954063,0.0026644000317901373
0.2819457241645544,Acceleration_Z,0,3.294708669658088,1500,12.225000381469727,3.3228230476379395,3.3228230476379395,1500,0.2879415258295591,0.0,-0.30300000309944153,-0.016748014837503433,0.6699205636978149,9.804766654968262,0.06714288145303726,-0.06367915868759155,0.014121320098638535
0.2819457241645544,Acceleration_Z,0,3.2824150547794337,1500,12.225000381469727,3.3041460514068604,3.3041460514068604,1500,0.28766547567239575,0.0,-0.18400000035762787,0.34931573271751404,-0.2201167643070221,9.658819198608398,0.038100920617580414,-0.022913841530680656,0.0026644000317901373
0,Acceleration_Z,0,1.8892106096840797,1500,12.239999771118164,3.2928998470306396,3.2928998470306396,1500,0.29025041297402066,0.0,0.07599999755620956,0.43066322803497314,-0.37324145436286926,9.529620170593262,-0.014387760311365128,-0.037301599979400635,-0.0007993200561031699
0,Acceleration_Z,0,1.4645166214715684,1500,12.239999771118164,3.2809998989105225,3.2809998989105225,1500,0.2900784705997106,0.0,-0.20999999344348907,0.6364245414733887,-0.27275338768959045,9.362139701843262,-0.04529480263590813,0.0007993200561031699,0.01705216057598591
0,Acceleration_Z,0,0.8462423320978856,1500,12.232000350952148,1.8874655961990356,1.8874655961990356,1500,0.28308384757726823,0.0,-0.3440000116825104,0.016748014837503433,0.22490191459655762,9.118097305297852,-0.015719961374998093,0.023446720093488693,0.025578241795301437
0,Acceleration_Z,0,0.2630430589468591,1500,12.232000350952148,1.4627432823181152,1.4627432823181152,1500,0.27074810943991623,0.0,-0.014999999664723873,-1.7250454425811768,0.8685041666030884,8.168246269226074,-0.0010657600359991193,0.03250567987561226,0.05328800156712532
0,Acceleration_Z,0,0.0,1500,12.206000328063965,0.8442484140396118,0.8442484140396118,1500,0.23674672229907265,0.0,-0.21199999749660492,-1.1986793279647827,-0.3325677216053009,9.340606689453125,0.006128120236098766,-0.019983001053333282,0.0021315200719982386
0,Acceleration_Z,0,0.0,1500,12.206000328063965,0.26276805996894836,0.26276805996894836,1500,0.1685319798765683,0.0,-0.3160000145435333,-0.81586754322052,-0.552684485912323,8.735285758972168,-0.009325399994850159,-0.007460320368409157,0.0013322000158950686
0,Acceleration_Z,0,0.0,1500,12.211999893188477,0.0,0.0,1500,0.09422787489181789,0.0,0.03200000151991844,-0.6388171315193176,-0.16748014092445374,9.869365692138672,-0.012256240472197533,-0.014920640736818314,0.0029308400116860867
0,Acceleration_Z,0,0.0,1500,12.211999893188477,0.0,0.0,1500,0.039110053741591023,0.0,0.009999999776482582,-0.32299742102622986,-0.3899894952774048,9.632500648498535,0.0015986401122063398,-0.012256240472197533,-0.02158164046704769
0,Acceleration_Z,0,0.0,1500,12.21500015258789,0.0,0.0,1500,0.017104026276780915,0.0,0.006000000052154064,0.3971672058105469,0.277538537979126,9.366925239562988,0.006128120236098766,-0.010924040339887142,-0.0015986401122063398
0,Acceleration_Z,0,0.0,1500,12.21500015258789,0.0,0.0,1500,0.009762929154959053,0.0,0.017000000923871994,0.20336875319480896,-0.0023925735149532557,9.197052955627441,-0.00452948035672307,0.0021315200719982386,0.0013322000158950686
0,Acceleration_Z,0,0.0,1500,12.222000122070312,0.0,0.0,1500,0.0070160484014688326,0.0,0.026000000536441803,0.15790985524654388,-0.045458897948265076,9.299933433532715,-0.003996599931269884,0.007460320368409157,-0.0002664400089997798
0,Acceleration_Z,0,0.0,1500,12.222000122070312,0.0,0.0,1500,0.0050541274647538225,0.0,0.0,0.39955976605415344,0.05263661593198776,9.412384033203125,0.0029308400116860867,-0.005595240276306868,0.0005328800179995596
0,Acceleration_Z,0,0.0,1500,12.227999687194824,0.0,0.0,1500,0.0038753970290918097,0.0,0.0,0.3636711835861206,-0.028710881248116493,9.398028373718262,0.0021315200719982386,-0.003463720204308629,-0.0002664400089997798
0,Acceleration_Z,0,0.0,1500,12.227999687194824,0.0,0.0,1500,0.0031053968563650846,0.0,0.0,0.2512202262878418,-0.02631830796599388,9.414776802062988,-0.0021315200719982386,0.003996599931269884,0.0013322000158950686
0,Acceleration_Z,0,0.0,1500,12.222999572753906,0.0,0.0,1500,0.0025700239458901777,0.0,0.0,0.29907169938087463,-0.033496029675006866,9.407599449157715,-0.0007993200561031699,0.0005328800179995596,0.0002664400089997798
0,Acceleration_Z,0,0.0,1500,12.222999572753906,0.0,0.0,1500,0.002179661845475492,0.0,0.0,0.31103456020355225,-0.05981433764100075,9.390851020812988,0.0018650800921022892,-0.0015986401122063398,0.0002664400089997798
0,Acceleration_Z,0,0.0,1500,12.21399974822998,0.0,0.0,1500,0.0018842655715992432,0.0,0.0,0.31821227073669434,-0.03828117623925209,9.381280899047852,0.0,0.0005328800179995596,0.0002664400089997798
0,Acceleration_Z,0,0.0,1500,12.21399974822998,0.0,0.0,1500,0.0016540015125446575,0.0,0.0,0.3086419701576233,-0.10766580700874329,9.393243789672852,-0.0002664400089997798,0.0,0.0
0,Acceleration_Z,0,0.0,1500,12.232000350952148,0.0,0.0,1500,0.0014701165254124376,0.0,0.0,0.3373528718948364,-0.09570293873548508,9.362139701843262,-0.0002664400089997798,-0.0002664400089997798,-0.0010657600359991193
0,Acceleration_Z,0,0.0,1500,12.232000350952148,0.0,0.0,1500,0.001320296666539639,0.0,0.0,0.30385681986808777,-0.04067374765872955,9.369318008422852,0.0,0.0,0.0010657600359991193
0,Acceleration_Z,0,0.0,1500,12.234999656677246,0.0,0.0,1500,0.0011961560712583498,0.0,0.0,0.31103456020355225,-0.10766580700874329,9.398028373718262,0.0,0.0005328800179995596,0.0007993200561031699
0,Acceleration_Z,0,0.0,1500,12.234999656677246,0.0,0.0,1500,0.0010918051247577765,0.0,0.0,0.3373528718948364,-0.043066322803497314,9.383673667907715,0.0,-0.0010657600359991193,-0.0010657600359991193
0,Acceleration_Z,0,0.0,1500,12.215999603271484,0.0,0.0,1500,0.0010029968195342381,0.0,0.0,0.2942865490913391,-0.04067374765872955,9.438702583312988,0.0010657600359991193,-0.0005328800179995596,0.0007993200561031699
