Reference,Bias_Sensor,Bias_val,Throttle_Control,Servo_Control,Voltage,Throttle_A,Throttle_B,Servo,Linear_X,Linear_Y,Linear_Z,Acceleration_X,Acceleration_Y,Acceleration_Z,Angular_X,Angular_Y,Angular_Z
0,Acceleration_Z,0,0.0,1500,12.222000122070312,0.0,0.0,1500,0.0,0.0,0.0,0.3206048607826233,-0.05981433764100075,9.381280899047852,0.002397960051894188,-0.0013322000158950686,-0.0010657600359991193
0,Acceleration_Z,0,0.0,1500,12.222000122070312,0.0,0.0,1500,0.0,0.0,0.0,0.277538537979126,-0.10766580700874329,9.359747886657715,0.0018650800921022892,-0.0013322000158950686,-0.0005328800179995596
0,Acceleration_Z,0,0.0,1500,12.22599983215332,0.0,0.0,1500,0.0,0.0,0.0,0.28710880875587463,-0.04785146936774254,9.369318008422852,0.002397960051894188,-0.0007993200561031699,-0.0007993200561031699
0,Acceleration_Z,0,0.0,1500,12.22599983215332,0.0,0.0,1500,0.0,0.0,0.0,0.2895013988018036,-0.06459948420524597,9.441095352172852,0.0021315200719982386,0.0,-0.0010657600359991193
0,Acceleration_Z,0,0.0,1500,12.225000381469727,0.0,0.0,1500,0.0,0.0,0.0,0.27993109822273254,-0.09091779589653015,9.371710777282715,0.0026644000317901373,-0.0007993200561031699,-0.0010657600359991193
0,Acceleration_Z,0,0.0,1500,12.225000381469727,0.0,0.0,1500,0.0,0.0,0.0,0.3206048607826233,-0.06459948420524597,9.486554145812988,0.0018650800921022892,-0.0010657600359991193,-0.0007993200561031699
0,Acceleration_Z,0,0.0,1500,12.23799991607666,0.0,0.0,1500,0.0,0.0,0.0,0.2942865490913391,-0.057421762496232986,9.366925239562988,0.0021315200719982386,-0.0002664400089997798,0.0
0,Acceleration_Z,0,0.0,1500,12.23799991607666,0.0,0.0,1500,0.0,0.0,0.0,0.3206048607826233,-0.08852522075176239,9.366925239562988,0.0021315200719982386,-0.0007993200561031699,-0.0010657600359991193
0,Acceleration_Z,0,0.0,1500,12.229000091552734,0.0,0.0,1500,0.0,0.0,0.0,0.2895013988018036,-0.10766580700874329,9.362139701843262,0.002397960051894188,0.0005328800179995596,-0.0010657600359991193
0,Acceleration_Z,0,0.0,1500,12.229000091552734,0.0,0.0,1500,0.0,0.0,0.0,0.277538537979126,-0.07656235247850418,9.362139701843262,0.0021315200719982386,0.0,-0.0002664400089997798
0,Acceleration_Z,0,0.0,1500,12.222000122070312,0.0,0.0,1500,0.0,0.0,0.0,0.29907169938087463,-0.0502440445125103,9.405206680297852,0.002397960051894188,0.0,-0.0005328800179995596
0,Acceleration_Z,0,0.0,1500,12.222000122070312,0.0,0.0,1500,0.0,0.0,0.0,0.3014642596244812,-0.08613264560699463,9.421954154968262,0.002397960051894188,-0.0013322000158950686,-0.0005328800179995596
0,Acceleration_Z,0,0.0,1500,12.218999862670898,0.0,0.0,1500,0.0,0.0,0.0,0.3014642596244812,-0.057421762496232986,9.429132461547852,0.0029308400116860867,0.0,-0.0013322000158950686
0,Acceleration_Z,0,0.0,1500,12.218999862670898,0.0,0.0,1500,0.0,0.0,0.0,0.28710880875587463,-0.02392573468387127,9.467412948608398,0.0015986401122063398,-0.0002664400089997798,-0.0002664400089997798
0,Acceleration_Z,0,0.0,1500,12.217000007629395,0.0,0.0,1500,0.0,0.0,0.0,0.277538537979126,-0.12202125042676926,9.323859214782715,0.0021315200719982386,-0.0005328800179995596,-0.0005328800179995596
0.2852257138511454,Acceleration_Z,0,1.3834557178419769,1500,12.217000007629395,0.0,0.0,1500,0.0,0.0,0.0,0.3086419701576233,-0.057421762496232986,9.417169570922852,0.0018650800921022892,-0.0005328800179995596,-0.0013322000158950686
0.2852257138511454,Acceleration_Z,0,1.79679640911974,1500,12.23799991607666,0.0,0.0,1500,0.0,0.0,0.0,0.265575647354126,-0.0813474953174591,9.338213920593262,0.002397960051894188,0.0002664400089997798,-0.0002664400089997798
0.2852257138511454,Acceleration_Z,0,2.43224347927336,1500,12.23799991607666,0.0,0.0,1500,0.001368421080865358,0.0,-0.25600001215934753,0.2703607976436615,-0.10288066416978836,9.395636558532715,0.0005328800179995596,-0.0007993200561031699,-0.0005328800179995596
0.2852257138511454,Acceleration_Z,0,3.0510899397885347,1500,12.234999656677246,1.3815354108810425,1.3815354108810425,1500,0.005646986625297816,0.0,-0.026000000536441803,0.8661116361618042,0.562254786491394,9.051105499267578,0.0015986401122063398,-0.003463720204308629,-0.00452948035672307
0.2852257138511454,Acceleration_Z,0,3.628496950388169,1500,12.234999656677246,1.794466495513916,1.794466495513916,1500,0.016929287254002882,0.0,-0.014999999664723873,1.4283664226531982,0.12441382557153702,9.450665473937988,0.010924040339887142,0.012256240472197533,0.01465420052409172
0.2852257138511454,Acceleration_Z,0,4.097153627754685,1500,12.26200008392334,2.430260419845581,2.430260419845581,1500,0.04666543312774053,0.0,-0.00800000037997961,1.1747535467147827,0.27993109822273254,9.323859214782715,0.005861680023372173,0.03197279945015907,-0.005062360316514969
0.2852257138511454,Acceleration_Z,0,4.395016256734975,1500,12.26200008392334,3.0501725673675537,3.0501725673675537,1500,0.1008733141973799,0.0,-0.257999986410141,1.4881807565689087,-0.11005838215351105,9.086994171142578,0.017851481214165688,0.021848080679774284,0.0002664400089997798
0.2852257138511454,Acceleration_Z,0,4.459503616955793,1500,12.289999961853027,3.6272568702697754,3.6272568702697754,1500,0.1820194518235106,0.0,-0.38600000739097595,1.9786583185195923,-0.7584457993507385,8.407503128051758,0.01465420052409172,-0.006661000195890665,0.003996599931269884
0.2852257138511454,Acceleration_Z,0,4.419847165054675,1500,12.289999961853027,4.0966668128967285,4.0966668128967285,1500,0.25145003817705114,0.0,-0.2849999964237213,1.648483157157898,0.28471624851226807,10.039237976074219,-0.03517008200287819,0.01332200039178133,0.0
0.2852257138511454,Acceleration_Z,0,4.232167463723667,1500,12.288000106811523,4.39466667175293,4.39466667175293,1500,0.31727422703239316,0.0,0.04699999839067459,0.7728012204170227,0.6675280332565308,9.718633651733398,-0.03517008200287819,0.0386338010430336,0.005861680023372173
0.2852257138511454,Acceleration_Z,0,4.012605631559592,1500,12.281000137329102,4.417748928070068,4.417748928070068,1500,0.35582067142109075,0.0,-0.16899999976158142,-0.043066322803497314,1.2297828197479248,9.273614883422852,0.03330500051379204,-0.00452948035672307,0.04129820317029953
0.2852257138511454,Acceleration_Z,0,3.7931882925757154,1500,12.27299976348877,4.230775833129883,4.230775833129883,1500,0.37037563993956174,0.0,-0.164000004529953,-0.2895013988018036,0.3756340444087982,10.457939147949219,0.008526080287992954,0.07007372379302979,0.029041960835456848
0.2852257138511454,Acceleration_Z,0,3.6108689876627795,1500,12.27299976348877,4.230775833129883,4.230775833129883,1500,0.37063239072104537,0.0,-0.19300000369548798,-0.4402335286140442,0.28471624851226807,8.742463111877441,0.046893440186977386,0.02744332142174244,0.03250567987561226
0.2852257138511454,Acceleration_Z,0,3.4411332104500665,1500,12.260000228881836,4.011744499206543,4.011744499206543,1500,0.3660520199812765,0.0,-0.4790000021457672,0.028710881248116493,-0.12680639326572418,10.864676475524902,0.05941612273454666,-0.009858280420303345,0.037301599979400635
0.2852257138511454,Acceleration_Z,0,3.2909848287556684,1500,12.260000228881836,3.792086362838745,3.792086362838745,1500,0.35877527943092463,0.0,-0.32199999690055847,-0.40434491634368896,-0.06459948420524597,9.694707870483398,0.034903641790151596,0.010124720633029938,0.039966002106666565
0.2852257138511454,Acceleration_Z,0,3.1344481097788983,1500,12.255999565124512,3.608711004257202,3.608711004257202,1500,0.3557200986968074,0.0,0.2029999941587448,0.045458897948265076,0.1818355917930603,9.543975830078125,-0.012789120897650719,0.019450120627880096,0.03517008200287819
0.2852257138511454,Acceleration_Z,0,3.023264354603959,1500,12.255999565124512,3.4401910305023193,3.4401910305023193,1500,0.3454624506323802,0.0,-0.3959999978542328,0.16748014092445374,-0.007177720312029123,10.422050476074219,0.020782319828867912,-0.03676871955394745,0.03010772168636322
0.2852257138511454,Acceleration_Z,0,2.920837454228695,1500,12.253999710083008,3.289858341217041,3.289858341217041,1500,0.33691173243160616,0.0,0.23600000143051147,0.004785147029906511,-0.4330558180809021,9.668389320373535,-0.062346961349248886,-0.02477892115712166,0.03543652221560478
0.2852257138511454,Acceleration_Z,0,2.8789214848083295,1500,12.253999710083008,3.13327956199646,3.13327956199646,1500,0.320181573103947,0.0,-0.4490000009536743,0.057421762496232986,-0.4593740999698639,8.802277565002441,-0.07380387932062149,0.01198980025947094,0.022114520892500877
0.2852257138511454,Acceleration_Z,0,2.8688879619885155,1500,12.253999710083008,3.022653341293335,3.022653341293335,1500,0.30327324171882325,0.0,-0.289000004529953,-0.057421762496232986,-0.8565413355827332,9.259259223937988,0.03437076136469841,-0.029574841260910034,0.06820864230394363
0.2852257138511454,Acceleration_Z,0,2.8557617841172194,1500,12.253999710083008,2.918834686279297,2.918834686279297,1500,0.29480924749643567,0.0,0.18799999356269836,-0.09570293873548508,-0.4713369905948639,9.108527183532715,0.0015986401122063398,0.016519280150532722,0.016785720363259315
0.2852257138511454,Acceleration_Z,0,2.857468127165635,1500,12.25,2.8770484924316406,2.8770484924316406,1500,0.28861931675598285,0.0,0.01899999938905239,0.11484352499246597,0.5000478625297546,8.759211540222168,0.027709761634469032,-0.008259640075266361,0.011190480552613735
0.2852257138511454,Acceleration_Z,0,2.868846726777252,1500,12.25,2.866840362548828,2.866840362548828,1500,0.28367712528802125,0.0,0.04800000041723251,-0.4474112391471863,-0.08852522075176239,9.247296333312988,-0.006394560448825359,0.02664400078356266,0.04529480263590813
0.2852257138511454,Acceleration_Z,0,2.88900311368622,1500,12.232999801635742,2.8543665409088135,2.8543665409088135,1500,0.27942451168615,0.0,0.024000000208616257,-0.2966791093349457,-0.045458897948265076,9.644463539123535,0.00905896071344614,0.037301599979400635,0.024512480944395065
0.2852257138511454,Acceleration_Z,0,2.9139938848334688,1500,12.232999801635742,2.856065511703491,2.856065511703491,1500,0.27626217805170955,0.0,0.020999999716877937,0.10766580700874329,-0.3014642596244812,9.508087158203125,0.004263040143996477,0.005328800063580275,0.005062360316514969
0.2852257138511454,Acceleration_Z,0,2.9455149019491027,1500,12.241000175476074,2.866434097290039,2.866434097290039,1500,0.273400949128627,0.0,0.04100000113248825,0.5000478625297546,-0.05981433764100075,9.244903564453125,0.006927440408617258,0.005595240276306868,0.013055560179054737
0.2852257138511454,Acceleration_Z,0,2.9848074303357555,1500,12.241000175476074,2.888535976409912,2.888535976409912,1500,0.27030590025827195,0.0,-0.24300000071525574,0.2631830871105194,-0.24882765114307404,10.639774322509766,0.0031972802244126797,0.014121320098638535,0.017851481214165688
0.2852257138511454,Acceleration_Z,0,3.031203776037482,1500,12.255000114440918,2.912264585494995,2.912264585494995,1500,0.2671536047001367,0.0,-0.05700000002980232,0.3206048607826233,-0.17705044150352478,8.584553718566895,0.017851481214165688,0.021848080679774284,0.015187080949544907
0.2852257138511454,Acceleration_Z,0,3.0814074001466403,1500,12.255000114440918,2.9446041584014893,2.9446041584014893,1500,0.26467033930742223,0.0,-0.08299999684095383,0.1507321298122406,0.25361278653144836,10.881423950195312,-0.006394560448825359,0.003463720204308629,0.013588440604507923
0.2852257138511454,Acceleration_Z,0,3.1350056100200407,1500,12.258999824523926,2.983023166656494,2.983023166656494,1500,0.26274739540857944,0.0,-0.12200000137090683,0.5742176175117493,-0.1698727160692215,9.486554145812988,-0.018384359776973724,-0.007193880155682564,0.008259640075266361
0.2852257138511454,Acceleration_Z,0,3.184652869805347,1500,12.258999824523926,3.0306971073150635,3.0306971073150635,1500,0.2626206300555918,0.0,-0.12700000405311584,0.0023925735149532557,0.6579577326774597,10.280888557434082,0.03437076136469841,-0.018650799989700317,0.015986399725079536
0.2852257138511454,Acceleration_Z,0,3.2287395942017305,1500,12.253999710083008,3.080519437789917,3.080519437789917,1500,0.2639916111801398,0.0,-0.07900000363588333,0.3445305824279785,0.17465786635875702,9.060675621032715,-0.006927440408617258,-0.016785720363259315,0.030374161899089813
0.2852257138511454,Acceleration_Z,0,3.266711497308296,1500,12.253999710083008,3.13327956199646,3.13327956199646,1500,0.2662388946455581,0.0,0.24799999594688416,0.2009761780500412,0.9378888010978699,9.716240882873535,-0.028509080410003662,-0.0015986401122063398,0.041564639657735825
0.2852257138511454,Acceleration_Z,0,3.2939432479128277,1500,12.258999824523926,3.1839346885681152,3.1839346885681152,1500,0.26980899996434876,0.0,0.009999999776482582,0.7728012204170227,-0.7416977882385254,8.314192771911621,-0.04396260157227516,0.0010657600359991193,0.022114520892500877
0.2852257138511454,Acceleration_Z,0,3.312848566706638,1500,12.258999824523926,3.2265007495880127,3.2265007495880127,1500,0.27365104965274,0.0,0.052000001072883606,0.2320796251296997,-0.3373528718948364,9.883721351623535,0.0852608010172844,-0.0772676020860672,0.04476192221045494
0.347393348295132,Acceleration_Z,0,3.6431560687493207,1500,12.26099967956543,3.264491081237793,3.264491081237793,1500,0.27371085597846095,0.0,-0.23199999332427979,0.7775864005088806,0.1196286752820015,8.689826965332031,0.02477892115712166,-0.007993199862539768,0.01332200039178133
0.347393348295132,Acceleration_Z,0,3.7619032089326945,1500,12.26099967956543,3.2917377948760986,3.2917377948760986,1500,0.2731658768784522,0.0,-0.5080000162124634,0.540721595287323,0.14116182923316956,9.984209060668945,0.0002664400089997798,-0.00905896071344614,0.023713160306215286
0.347393348295132,Acceleration_Z,0,3.903473450133178,1500,12.255999565124512,3.3108222484588623,3.3108222484588623,1500,0.2783387215035443,0.0,0.2070000022649765,-0.24164992570877075,0.3206048607826233,9.395636558532715,-0.018650799989700317,0.046893440186977386,0.03756804019212723
0.347393348295132,Acceleration_Z,0,4.035168260593474,1500,12.255999565124512,3.6427555084228516,3.6427555084228516,1500,0.2840640973233076,0.0,-0.20600000023841858,0.5167958736419678,-0.17944301664829254,9.424346923828125,0.0021315200719982386,0.03676871955394745,0.022647401317954063
0.347393348295132,Acceleration_Z,0,4.144133101756689,1500,12.258999824523926,3.7594265937805176,3.7594265937805176,1500,0.29190036582699036,0.0,-0.20399999618530273,0.7225571870803833,0.7847641110420227,9.914824485778809,-0.004263040143996477,0.021848080679774284,0.005062360316514969
0.347393348295132,Acceleration_Z,0,4.233866414016831,1500,12.258999824523926,3.9024481773376465,3.9024481773376465,1500,0.3004512281152132,0.0,-0.36500000953674316,0.4713369905948639,1.6054167747497559,8.615656852722168,0.035702962428331375,0.011723360046744347,0.030640600249171257
0.347393348295132,Acceleration_Z,0,4.267156344058195,1500,12.26200008392334,4.034538745880127,4.034538745880127,1500,0.3167640716927535,0.0,0.20900000631809235,0.7656235098838806,0.7249497771263123,8.517561912536621,0.012522680684924126,0.022114520892500877,0.019983001053333282
0.347393348295132,Acceleration_Z,0,4.288354763207648,1500,12.26200008392334,4.143534183502197,4.143534183502197,1500,0.3293041108114625,0.0,-0.19499999284744263,0.11484352499246597,0.6244617104530334,9.199444770812988,-0.01465420052409172,0.05248868092894554,0.02824264019727707
0.347393348295132,Acceleration_Z,0,4.302404971049705,1500,12.255999565124512,4.231724262237549,4.231724262237549,1500,0.3368629242582311,0.0,-0.3779999911785126,1.3183079957962036,-1.9236290454864502,8.507991790771484,0.003463720204308629,-0.010391159914433956,0.04449548199772835
0.347393348295132,Acceleration_Z,0,4.302157020019757,1500,12.255999565124512,4.265769004821777,4.265769004821777,1500,0.343046055259817,0.0,-0.2759999930858612,0.7058091759681702,1.1747535467147827,9.749736785888672,-0.03410432115197182,-0.035702962428331375,0.034903641790151596
0.347393348295132,Acceleration_Z,0,4.278975383086596,1500,12.260000228881836,4.287594318389893,4.287594318389893,1500,0.35086287214919154,0.0,-0.34200000762939453,0.2942865490913391,1.1580055952072144,8.656331062316895,-0.09325399994850159,0.062346961349248886,0.052755121141672134
0.347393348295132,Acceleration_Z,0,4.244630800143133,1500,12.260000228881836,4.3012166023254395,4.3012166023254395,1500,0.3576206614331084,0.0,-0.3050000071525574,-0.045458897948265076,0.8732893466949463,9.967461585998535,0.09405332058668137,-0.08153064548969269,0.05062360316514969
0.347393348295132,Acceleration_Z,0,4.20631061951379,1500,12.265999794006348,4.3016180992126465,4.3016180992126465,1500,0.36189683044643045,0.0,-0.2849999964237213,0.36845633387565613,-0.4330558180809021,10.857498168945312,0.00905896071344614,-0.013854880817234516,0.008259640075266361
0.347393348295132,Acceleration_Z,0,4.160705057616877,1500,12.265999794006348,4.276063919067383,4.276063919067383,1500,0.365271260040391,0.0,-0.31299999356269836,0.8421858549118042,-0.7560532093048096,8.271126747131348,-0.025311801582574844,0.010124720633029938,0.03596940264105797
0.347393348295132,Acceleration_Z,0,4.115990573865674,1500,12.267999649047852,4.242682933807373,4.242682933807373,1500,0.36674911411996847,0.0,-0.3179999887943268,-0.478514701128006,1.4116183519363403,10.778543472290039,0.005595240276306868,0.032239239662885666,0.04982428252696991
0.347393348295132,Acceleration_Z,0,4.070600036292837,1500,12.267999649047852,4.205197811126709,4.205197811126709,1500,0.3673743082164372,0.0,-0.3310000002384186,0.9259259700775146,-1.1843239068984985,7.634702205657959,-0.010124720633029938,0.006927440408617258,0.01625283993780613
0.347393348295132,Acceleration_Z,0,4.0256552008589255,1500,12.258000373840332,4.159207820892334,4.159207820892334,1500,0.3674786466221043,0.0,-0.3490000069141388,0.5574696063995361,1.1962867975234985,9.591827392578125,0.034903641790151596,0.007460320368409157,0.023446720093488693
0.347393348295132,Acceleration_Z,0,3.9850835783176057,1500,12.258000373840332,4.1132402420043945,4.1132402420043945,1500,0.3665464974387405,0.0,-0.34599998593330383,-0.03828117623925209,0.8230453133583069,9.890898704528809,-0.0021315200719982386,-0.013854880817234516,0.010924040339887142
0.347393348295132,Acceleration_Z,0,3.93895917374195,1500,12.265999794006348,4.069926738739014,4.069926738739014,1500,0.3670113320674806,0.0,-0.017999999225139618,0.5215809941291809,-1.787252426147461,10.369413375854492,-0.0031972802244126797,-0.057018160820007324,0.022114520892500877
0.347393348295132,Acceleration_Z,0,3.8916047938542855,1500,12.265999794006348,4.023929119110107,4.023929119110107,1500,0.36774866270135154,0.0,0.17100000381469727,-0.22250933945178986,1.2537084817886353,8.137142181396484,0.00452948035672307,-0.05835036188364029,0.039966002106666565
0.347393348295132,Acceleration_Z,0,3.8417559427441033,1500,12.255999565124512,3.9831998348236084,3.9831998348236084,1500,0.36871300508026117,0.0,0.06499999761581421,0.5670399069786072,0.9474591016769409,7.225572109222412,-0.07753404229879379,0.05142292007803917,0.04129820317029953
0.347393348295132,Acceleration_Z,0,3.8060255299939056,1500,12.255999565124512,3.9372398853302,3.9372398853302,1500,0.36634753819838095,0.0,-0.4819999933242798,0.7608383893966675,0.27275338768959045,9.972246170043945,0.10551024228334427,-0.05648528039455414,0.0695408433675766
0.347393348295132,Acceleration_Z,0,3.778156289032559,1500,12.248000144958496,3.8904411792755127,3.8904411792755127,1500,0.3629099899860465,0.0,-0.032999999821186066,0.6364245414733887,-0.5718250870704651,8.230452537536621,-0.005861680023372173,0.009325399994850159,0.04049888253211975
0.347393348295132,Acceleration_Z,0,3.747393350989964,1500,12.248000144958496,3.8394079208374023,3.8394079208374023,1500,0.36147972916253296,0.0,-0.2540000081062317,0.7488754987716675,-1.1699684858322144,8.933869361877441,-0.008526080287992954,0.009591840207576752,0.03836736083030701
0.347393348295132,Acceleration_Z,0,3.712906363109437,1500,12.26099967956543,3.8043158054351807,3.8043158054351807,1500,0.36183147040031205,0.0,0.25,0.8469710350036621,-1.4044406414031982,8.122787475585938,0.006927440408617258,0.04715988039970398,0.05914968252182007
0.347393348295132,Acceleration_Z,0,3.7025617011032463,1500,12.26099967956543,3.777068853378296,3.777068853378296,1500,0.3573222555834787,0.0,-0.4729999899864197,0.15790985524654388,-0.7177720665931702,9.029572486877441,0.007460320368409157,0.03277212008833885,0.03357144072651863
0.347393348295132,Acceleration_Z,0,3.693292618445482,1500,12.248000144958496,3.7458465099334717,3.7458465099334717,1500,0.3538817988938931,0.0,-0.07699999958276749,-0.24643507599830627,-0.014355440624058247,10.936453819274902,0.007460320368409157,0.0026644000317901373,0.03010772168636322
0.347393348295132,Acceleration_Z,0,3.6774414022458797,1500,12.248000144958496,3.711824655532837,3.711824655532837,1500,0.3535719216490309,0.0,0.13600000739097595,-0.5742176175117493,-0.45458897948265076,8.433821678161621,0.02824264019727707,0.0002664400089997798,0.022913841530680656
0.347393348295132,Acceleration_Z,0,3.688178049874566,1500,12.24899959564209,3.700218677520752,3.700218677520752,1500,0.3484412312442538,0.0,-0.4970000088214874,-0.05263661593198776,-0.3062494099140167,9.996171951293945,0.006128120236098766,-0.026111120358109474,0.01332200039178133
0.347393348295132,Acceleration_Z,0,3.681249111456094,1500,12.24899959564209,3.6917126178741455,3.6917126178741455,1500,0.348537585090805,0.0,0.24199999868869781,0.6124988198280334,-0.6579577326774597,9.027179718017578,0.0005328800179995596,-0.026377560570836067,0.029041960835456848
0.347393348295132,Acceleration_Z,0,3.705689780657354,1500,12.253000259399414,3.6758999824523926,3.6758999824523926,1500,0.34298384824304623,0.0,-0.44200000166893005,0.0023925735149532557,-0.36127859354019165,9.955498695373535,-0.0021315200719982386,-0.02664400078356266,0.03943312168121338
0.347393348295132,Acceleration_Z,0,3.710286512212909,1500,12.253000259399414,3.686110734939575,3.686110734939575,1500,0.34316529347107055,0.0,-0.0729999989271164,0.9307110905647278,-0.28710880875587463,8.082113265991211,-0.06634356081485748,0.03357144072651863,0.03676871955394745
0.347393348295132,Acceleration_Z,-1.2601720210378846,3.7237941470585936,1500,12.246000289916992,3.680603265762329,3.680603265762329,1500,0.34237430094893667,0.0,-0.017000000923871994,0.055029191076755524,-0.21054646372795105,8.245522368305377,-0.02051588147878647,-0.08392859995365143,0.04476192221045494
0.347393348295132,Acceleration_Z,-1.2601720210378846,3.7530611270497927,1500,12.246000289916992,3.7044150829315186,3.7044150829315186,1500,0.3385371877265735,0.0,-0.3240000009536743,0.05263661593198776,0.34213802218437195,9.496838438862017,-0.012256240472197533,0.00452948035672307,0.02477892115712166
0.347393348295132,Acceleration_Z,-1.2601720210378846,3.762639792153806,1500,12.26300048828125,3.70955753326416,3.70955753326416,1500,0.34003557998332234,0.0,0.2199999988079071,0.7967270016670227,-0.8708967566490173,8.645082342975787,0.0658106803894043,-0.0655442401766777,0.01065760012716055
0.347393348295132,Acceleration_Z,-1.2601720210378846,3.798676742083282,1500,12.26300048828125,3.721480131149292,3.721480131149292,1500,0.33626930803643834,0.0,-0.4729999899864197,0.7967270016670227,-0.21533161401748657,6.204657423847369,-0.012522680684924126,0.049291402101516724,0.02664400078356266
0.347393348295132,Acceleration_Z,-1.2601720210378846,3.80729876455297,1500,12.25100040435791,3.751868724822998,3.751868724822998,1500,0.33902882416607844,0.0,0.24899999797344208,0.49287015199661255,-0.6627428531646729,8.482387411945513,0.005328800063580275,0.04982428252696991,0.022913841530680656
0.347393348295132,Acceleration_Z,-1.2601720210378846,3.8307867034058294,1500,12.25100040435791,3.760376453399658,3.760376453399658,1500,0.3385252158005475,0.0,-0.2280000001192093,0.2895013988018036,0.8469710350036621,8.302944052570513,0.003463720204308629,0.01811792142689228,0.0077267601154744625
0.347393348295132,Acceleration_Z,-1.2601720210378846,3.85855172452247,1500,12.26200008392334,3.797813892364502,3.797813892364502,1500,0.33682904754106513,0.0,-0.35199999809265137,0.7751938104629517,-0.5120107531547546,6.307537901752642,0.006661000195890665,0.022913841530680656,0.022647401317954063
0.347393348295132,Acceleration_Z,-1.2601720210378846,3.8675562405597903,1500,12.26200008392334,3.8063292503356934,3.8063292503356934,1500,0.33959174289848676,0.0,0.2070000022649765,0.2560053765773773,0.22250933945178986,8.594838011615924,0.00452948035672307,0.014387760311365128,0.015187080949544907
0.347393348295132,Acceleration_Z,-1.2601720210378846,3.8995285265886865,1500,12.253999710083008,3.8293750286102295,3.8293750286102295,1500,0.3370770010547579,0.0,-0.23499999940395355,0.4282706677913666,0.8374007344245911,8.23595224654024,0.012256240472197533,-0.00452948035672307,0.01198980025947094
0.347393348295132,Acceleration_Z,-1.2601720210378846,3.925274458523454,1500,12.253999710083008,3.8566060066223145,3.8566060066223145,1500,0.33613693976898,0.0,-0.5009999871253967,-0.021533161401748657,0.6388171315193176,9.405920851581744,0.02158164046704769,-0.004795920103788376,0.03943312168121338
0.347393348295132,Acceleration_Z,-1.2601720210378846,3.9368049720473235,1500,12.265999794006348,3.8654935359954834,3.8654935359954834,1500,0.3388285527426553,0.0,0.23100000619888306,0.3636711835861206,0.3206048607826233,9.054212439411334,-0.035702962428331375,-0.00452948035672307,0.03090704046189785
0.347393348295132,Acceleration_Z,-1.2601720210378846,3.9617426398626554,1500,12.265999794006348,3.897862195968628,3.897862195968628,1500,0.3381047328294801,0.0,-0.4620000123977661,-0.21533161401748657,0.6268542408943176,8.582875120990924,-0.054620202630758286,0.018650799989700317,0.0540873222053051
0.347393348295132,Acceleration_Z,-1.2601720210378846,3.9801343671439144,1500,12.243000030517578,3.9245617389678955,3.9245617389678955,1500,0.3385018209032114,0.0,-0.2669999897480011,0.9977031350135803,0.16508756577968597,8.970472205036334,0.10870752483606339,-0.10524380207061768,0.06421203911304474
0.347393348295132,Acceleration_Z,-1.2601720210378846,3.9844675613937883,1500,12.243000030517578,3.9347643852233887,3.9347643852233887,1500,0.3417990241766151,0.0,0.22300000488758087,0.28710880875587463,-0.9211407899856567,8.11632334029024,0.019983001053333282,0.0013322000158950686,0.05089004337787628
0.347393348295132,Acceleration_Z,-1.2601720210378846,3.981629747275215,1500,12.241000175476074,3.9596235752105713,3.9596235752105713,1500,0.34552236209917053,0.0,0.08500000089406967,0.1004880890250206,1.275241732597351,8.310122359150103,-0.0026644000317901373,-0.03596940264105797,0.015187080949544907
0.347393348295132,Acceleration_Z,0,3.98768535429262,1500,12.241000175476074,3.9783248901367188,3.9783248901367188,1500,0.3457568761629141,0.0,-0.4180000126361847,0.4450186789035797,0.5167958736419678,10.376591682434082,0.014920640736818314,-0.006394560448825359,0.034903641790151596
0.347393348295132,Acceleration_Z,0,3.992740421489606,1500,12.251999855041504,3.9836015701293945,3.9836015701293945,1500,0.3455124119784193,0.0,-0.3070000112056732,1.074265480041504,-1.378122329711914,9.943535804748535,0.005062360316514969,0.07673472166061401,0.033837880939245224
0.347393348295132,Acceleration_Z,0,3.984405975949145,1500,12.251999855041504,3.980198383331299,3.980198383331299,1500,0.3480631060797515,0.0,-0.09000000357627869,0.7345200777053833,0.29907169938087463,8.184993743896484,-0.019183680415153503,0.03596940264105797,0.010924040339887142
0.347393348295132,Acceleration_Z,0,3.9685865300394716,1500,12.265000343322754,3.9861252307891846,3.9861252307891846,1500,0.35143543990335385,0.0,0.19900000095367432,0.7656235098838806,-1.1891090869903564,9.517657279968262,0.014387760311365128,-0.015986399725079536,-0.0037301601842045784
0.347393348295132,Acceleration_Z,0,3.9646999766087103,1500,12.265000343322754,3.9912357330322266,3.9912357330322266,1500,0.35091784480813293,0.0,-0.1770000010728836,-0.21533161401748657,1.2991673946380615,11.32644271850586,0.01705216057598591,0.01332200039178133,0.015719961374998093
0.347393348295132,Acceleration_Z,0,3.9609145520918854,1500,12.260000228881836,3.982797384262085,3.982797384262085,1500,0.3499784373764864,0.0,-0.44200000166893005,-0.14116182923316956,0.17705044150352478,9.532012939453125,-0.01465420052409172,-0.030640600249171257,0.014387760311365128
0.347393348295132,Acceleration_Z,0,3.9530861542667166,1500,12.260000228881836,3.9674723148345947,3.9674723148345947,1500,0.3502383471831052,0.0,-0.05299999937415123,-0.45458897948265076,1.8255336284637451,10.154082298278809,-0.04582768306136131,-0.03170635923743248,0.043429721146821976
0.347393348295132,Acceleration_Z,0,3.9357218935561105,1500,12.23799991607666,3.963752269744873,3.963752269744873,1500,0.3525398991478235,0.0,0.04600000008940697,0.011962867341935635,-0.46176669001579285,7.761508464813232,-0.07646828144788742,0.020782319828867912,0.03703515976667404
0.347393348295132,Acceleration_Z,0,3.918939288948607,1500,12.23799991607666,3.958653211593628,3.958653211593628,1500,0.3539932305508928,0.0,-0.11800000071525574,0.31103456020355225,1.3230931758880615,11.156570434570312,0.08153064548969269,-0.06847508251667023,0.03277212008833885
0.347393348295132,Acceleration_Z,0,3.913241310713882,1500,12.236000061035156,3.9512081146240234,3.9512081146240234,1500,0.35234796337473945,0.0,-0.28200000524520874,0.29189395904541016,-0.2703607976436615,9.874151229858398,0.01332200039178133,0.014121320098638535,0.05248868092894554
0.347393348295132,Acceleration_Z,0,3.907827792741895,1500,12.236000061035156,3.934213876724243,3.934213876724243,1500,0.35089195781450655,0.0,-0.07100000232458115,0.35410088300704956,-0.22729448974132538,9.522442817687988,-0.0077267601154744625,0.005861680023372173,0.006394560448825359
0.347393348295132,Acceleration_Z,0,3.8875748996527273,1500,12.255999565124512,3.9168131351470947,3.9168131351470947,1500,0.3532058801275376,0.0,0.004000000189989805,0.8708967566490173,-0.46176669001579285,10.847928047180176,0.009858280420303345,-0.008259640075266361,0.02930840104818344
0.3142960863979348,Acceleration_Z,0,3.7087511523854664,1500,12.255999565124512,3.9117064476013184,3.9117064476013184,1500,0.3546682431782504,0.0,0.10499999672174454,0.82783043384552,-1.6628385782241821,9.488946914672852,0.003996599931269884,0.03676871955394745,0.011190480552613735
0.3142960863979348,Acceleration_Z,0,3.6543348047759823,1500,12.258999824523926,3.905853748321533,3.905853748321533,1500,0.35284672098304104,0.0,-0.5099999904632568,0.5263661742210388,-1.7322232723236084,10.094267845153809,0.014121320098638535,0.04396260157227516,0.013055560179054737
0.3142960863979348,Acceleration_Z,0,3.5772002790050954,1500,12.258999824523926,3.8854217529296875,3.8854217529296875,1500,0.35057283769890035,0.0,-0.06199999898672104,0.7464829087257385,-1.2704565525054932,7.550961971282959,0.025311801582574844,0.028775520622730255,0.012256240472197533
0.3142960863979348,Acceleration_Z,0,3.4941762132576404,1500,12.236000061035156,3.7064883708953857,3.7064883708953857,1500,0.3504923822807214,0.0,0.05900000035762787,-0.4904775619506836,1.0575175285339355,11.23073959350586,0.02051588147878647,0.04742632061243057,-0.0018650800921022892
0.3142960863979348,Acceleration_Z,0,3.435178282449363,1500,12.236000061035156,3.6538054943084717,3.6538054943084717,1500,0.3458461356624685,0.0,-0.46000000834465027,0.1196286752820015,1.074265480041504,8.907550811767578,0.01705216057598591,0.005062360316514969,0.0386338010430336
0.3142960863979348,Acceleration_Z,0,3.367788614425402,1500,12.25,3.576319456100464,3.576319456100464,1500,0.34433004114842186,0.0,0.2070000022649765,-0.3756340444087982,0.6555651426315308,11.15417766571045,-0.046094123274087906,-0.015719961374998093,0.027176881209015846
0.3142960863979348,Acceleration_Z,0,3.328598473308717,1500,12.25,3.4929513931274414,3.4929513931274414,1500,0.33823658760868885,0.0,-0.49300000071525574,-0.8493635654449463,-0.2320796251296997,9.931572914123535,-0.04529480263590813,0.02504536136984825,0.042363960295915604
0.3142960863979348,Acceleration_Z,0,3.278912983167164,1500,12.251999855041504,3.4339632987976074,3.4339632987976074,1500,0.33636594585075413,0.0,0.23800000548362732,0.26079049706459045,0.19379845261573792,9.926787376403809,0.058883242309093475,-0.06394559890031815,0.056218840181827545
0.3142960863979348,Acceleration_Z,0,3.266211785095297,1500,12.251999855041504,3.365896463394165,3.365896463394165,1500,0.32844210582862265,0.0,-0.4399999976158142,-0.07416977733373642,-0.4163077771663666,9.888505935668945,0.020782319828867912,0.03410432115197182,0.05861680209636688
0.3142960863979348,Acceleration_Z,0,3.2522075749715014,1500,12.25100040435791,3.326486825942993,3.326486825942993,1500,0.3234591402035277,0.0,-0.017999999225139618,0.488085001707077,-0.20576132833957672,10.618241310119629,0.025311801582574844,-0.02664400078356266,0.03090704046189785
0.3142960863979348,Acceleration_Z,0,3.2416715683674227,1500,12.25100040435791,3.2771427631378174,3.2771427631378174,1500,0.32055741525601517,0.0,0.17299999296665192,0.33017513155937195,-0.5144032835960388,9.481768608093262,-0.0015986401122063398,0.017851481214165688,0.038100920617580414
0.3142960863979348,Acceleration_Z,0,3.2667897387626024,1500,12.236000061035156,3.2646327018737793,3.2646327018737793,1500,0.3119951640647763,0.0,-0.4620000123977661,0.7393051981925964,0.0023925735149532557,9.637286186218262,0.016785720363259315,0.036502283066511154,0.0173186007887125
0.3142960863979348,Acceleration_Z,0,3.30967207910429,1500,12.236000061035156,3.251037359237671,3.251037359237671,1500,0.3028077793328822,0.0,-0.2669999897480011,0.43544837832450867,-0.41870036721229553,9.699493408203125,-0.011723360046744347,0.04556124284863472,0.023446720093488693
0.3142960863979348,Acceleration_Z,0,3.326656432894371,1500,12.23900032043457,3.2399353981018066,3.2399353981018066,1500,0.3031171623804745,0.0,0.22499999403953552,0.28471624851226807,-0.5837879180908203,8.826203346252441,0.01705216057598591,0.0213152002543211,0.015986399725079536
0.3142960863979348,Acceleration_Z,0,3.351187805985454,1500,12.23900032043457,3.2654333114624023,3.2654333114624023,1500,0.3033012026909594,0.0,0.0430000014603138,0.12919896841049194,-0.11484352499246597,8.759211540222168,0.028775520622730255,0.01705216057598591,0.014387760311365128
0.3142960863979348,Acceleration_Z,0,3.3982568954498205,1500,12.248000144958496,3.3086609840393066,3.3086609840393066,1500,0.29872275742212406,0.0,-0.4620000123977661,0.2512202262878418,0.5766102075576782,9.338213920593262,0.003463720204308629,0.012522680684924126,0.025311801582574844
0.3142960863979348,Acceleration_Z,0,3.4448928570507196,1500,12.248000144958496,3.325672149658203,3.325672149658203,1500,0.2955812957038044,0.0,-0.041999999433755875,0.8039047122001648,-0.23686477541923523,10.166045188903809,-0.019183680415153503,-0.031173480674624443,0.0029308400116860867
0.3142960863979348,Acceleration_Z,0,3.472436588782473,1500,12.244999885559082,3.350368022918701,3.350368022918701,1500,0.2980649114433644,0.0,0.03700000047683716,0.21772418916225433,0.1818355917930603,9.390851020812988,-0.009325399994850159,0.014387760311365128,0.026910440996289253
0.3142960863979348,Acceleration_Z,0,3.508428686744845,1500,12.244999885559082,3.396286964416504,3.396286964416504,1500,0.2985865366926227,0.0,-0.23000000417232513,0.1507321298122406,0.6866685748100281,8.881233215332031,-0.046094123274087906,0.01891724020242691,0.035702962428331375
0.3142960863979348,Acceleration_Z,0,3.553683096881741,1500,12.260000228881836,3.443016767501831,3.443016767501831,1500,0.2966283611743168,0.0,-0.42500001192092896,0.045458897948265076,0.22250933945178986,9.187481880187988,-0.046094123274087906,-0.002397960051894188,0.027709761634469032
0.3142960863979348,Acceleration_Z,0,3.570861327444932,1500,12.260000228881836,3.470261335372925,3.470261335372925,1500,0.30095734387330814,0.0,0.20499999821186066,0.2009761780500412,1.1867164373397827,9.778448104858398,0.057018160820007324,-0.05089004337787628,0.03890024125576019
0.3142960863979348,Acceleration_Z,0,3.6084390039498886,1500,12.244999885559082,3.5068318843841553,3.5068318843841553,1500,0.30010820468152877,0.0,-0.4620000123977661,0.540721595287323,0.004785147029906511,8.357258796691895,0.0002664400089997798,-0.025311801582574844,0.027709761634469032
0.3142960863979348,Acceleration_Z,0,3.619617829113417,1500,12.244999885559082,3.552750587463379,3.552750587463379,1500,0.30424704565338967,0.0,0.18799999356269836,-0.3947746157646179,-0.09091779589653015,10.539286613464355,0.013055560179054737,-0.01065760012716055,0.039166681468486786
0.3142960863979348,Acceleration_Z,0,3.64326573348573,1500,12.260000228881836,3.5690224170684814,3.5690224170684814,1500,0.3047166104789418,0.0,-0.453000009059906,0.1698727160692215,0.945066511631012,9.453058242797852,0.01811792142689228,-0.02051588147878647,0.015187080949544907
0.3142960863979348,Acceleration_Z,0,3.6475292200192446,1500,12.260000228881836,3.606483221054077,3.606483221054077,1500,0.30835851971437717,0.0,0.2199999988079071,0.5191884636878967,0.3062494099140167,8.723322868347168,0.024246040731668472,0.0231802798807621,0.026111120358109474
0.3142960863979348,Acceleration_Z,0,3.6625035087424855,1500,12.258000373840332,3.617812395095825,3.617812395095825,1500,0.3086269503147347,0.0,-0.45500001311302185,0.14355440437793732,-0.26079049706459045,9.469805717468262,-0.0005328800179995596,0.038100920617580414,0.014387760311365128
0.3142960863979348,Acceleration_Z,0,3.6564807464903906,1500,12.258000373840332,3.6416475772857666,3.6416475772857666,1500,0.31254177007520717,0.0,0.23600000143051147,0.24643507599830627,0.12441382557153702,7.649057388305664,0.014121320098638535,-0.003996599931269884,0.027176881209015846
0.3142960863979348,Acceleration_Z,0,3.663989997314132,1500,12.244999885559082,3.6462888717651367,3.6462888717651367,1500,0.31245452421724174,0.0,-0.44699999690055847,0.5000478625297546,-0.23447220027446747,8.146712303161621,0.014121320098638535,0.0026644000317901373,0.003996599931269884
0.3142960863979348,Acceleration_Z,0,3.652132689465072,1500,12.244999885559082,3.661595106124878,3.661595106124878,1500,0.31573939588194794,0.0,0.1940000057220459,0.17944301664829254,0.2823236584663391,8.460140228271484,0.015187080949544907,0.0031972802244126797,0.019983001053333282
0.3142960863979348,Acceleration_Z,0,3.655029940315448,1500,12.255000114440918,3.6543729305267334,3.6543729305267334,1500,0.31501448712491137,0.0,-0.453000009059906,0.6412097215652466,-0.6292468309402466,9.096564292907715,-0.0031972802244126797,-0.05435376241803169,0.009858280420303345
0.3142960863979348,Acceleration_Z,0,3.63864325867848,1500,12.255000114440918,3.6611814498901367,3.6611814498901367,1500,0.3179404084435467,0.0,0.2070000022649765,0.4402335286140442,-0.41391521692276,9.819121360778809,-0.042363960295915604,-0.0018650800921022892,0.039966002106666565
0.3142960863979348,Acceleration_Z,0,3.63419011231802,1500,12.253000259399414,3.6503729820251465,3.6503729820251465,1500,0.31765000961200196,0.0,-0.4620000123977661,0.5263661742210388,-0.7249497771263123,9.098957061767578,-0.06021544337272644,0.02238096110522747,0.032239239662885666
0.3142960863979348,Acceleration_Z,0,3.6107280208745167,1500,12.253000259399414,3.6537766456604004,3.6537766456604004,1500,0.32088649413425185,0.0,0.20499999821186066,0.8852521777153015,-0.8374007344245911,10.410087585449219,0.06634356081485748,-0.09378688037395477,0.035702962428331375
0.3142960863979348,Acceleration_Z,0,3.6048491409999213,1500,12.258999824523926,3.636836528778076,3.636836528778076,1500,0.3195734728499687,0.0,-0.4050000011920929,0.06699205935001373,-0.8708967566490173,10.216288566589355,-0.005328800063580275,0.029574841260910034,0.038100920617580414
0.3142960863979348,Acceleration_Z,0,3.5793158059334247,1500,12.258999824523926,3.6334311962127686,3.6334311962127686,1500,0.32217192882062357,0.0,0.18799999356269836,0.043066322803497314,-0.275145947933197,8.838166236877441,-0.006394560448825359,0.030640600249171257,0.04369616135954857
0.3142960863979348,Acceleration_Z,0,3.570965866044537,1500,12.25100040435791,3.608940362930298,3.608940362930298,1500,0.32066804322157855,0.0,-0.44200000166893005,0.4019523561000824,0.478514701128006,9.967461585998535,0.029574841260910034,-0.05355444177985191,0.015187080949544907
0.3142960863979348,Acceleration_Z,0,3.5455067612321423,1500,12.25100040435791,3.6038360595703125,3.6038360595703125,1500,0.3227152419654138,0.0,0.21199999749660492,0.5120107531547546,0.3588860332965851,9.768877983093262,0.034637201577425,0.028509080410003662,0.0386338010430336
0.3142960863979348,Acceleration_Z,0,3.5384953404167163,1500,12.255000114440918,3.5777790546417236,3.5777790546417236,1500,0.3205940138170342,0.0,-0.44200000166893005,-0.021533161401748657,0.15312470495700836,10.814432144165039,-0.019450120627880096,0.010124720633029938,0.021848080679774284
0.3142960863979348,Acceleration_Z,0,3.514558297460225,1500,12.255000114440918,3.5692687034606934,3.5692687034606934,1500,0.32225684731062926,0.0,0.1679999977350235,0.7297348976135254,-0.08613264560699463,10.048809051513672,0.009325399994850159,0.011190480552613735,0.033038560301065445
0.3142960863979348,Acceleration_Z,0,3.5113090162931653,1500,12.265999794006348,3.543510913848877,3.543510913848877,1500,0.3195072144623366,0.0,-0.45100000500679016,0.7608383893966675,-0.1626949906349182,10.113408088684082,0.0002664400089997798,0.005595240276306868,0.013854880817234516
0.3142960863979348,Acceleration_Z,0,3.490456430006194,1500,12.265999794006348,3.536696434020996,3.536696434020996,1500,0.3209358416428426,0.0,0.1459999978542328,0.6077136397361755,0.41870036721229553,11.013015747070312,0.009591840207576752,-0.018650799989700317,0.017851481214165688
0.3142960863979348,Acceleration_Z,0,3.4919935752201994,1500,12.267000198364258,3.5131325721740723,3.5131325721740723,1500,0.3177749952815458,0.0,-0.4359999895095825,1.3422337770462036,-0.8350081443786621,10.170829772949219,-0.0021315200719982386,-0.05755104124546051,0.005062360316514969
0.3142960863979348,Acceleration_Z,0,3.4754531717870156,1500,12.267000198364258,3.5097248554229736,3.5097248554229736,1500,0.3190508914701075,0.0,0.18299999833106995,0.31581971049308777,0.5646473169326782,11.24988079071045,-0.019183680415153503,-0.016519280150532722,0.03010772168636322
0.3142960863979348,Acceleration_Z,0,3.4778499369375955,1500,12.260000228881836,3.4889917373657227,3.4889917373657227,1500,0.31656006058351266,0.0,-0.46399998664855957,-0.04785146936774254,-1.347018837928772,9.866972923278809,-0.06474491953849792,0.04662699997425079,0.033837880939245224
0.3142960863979348,Acceleration_Z,0,3.4624074503663653,1500,12.260000228881836,3.490694522857666,3.490694522857666,1500,0.3182822217552278,0.0,0.24699999392032623,1.1292946338653564,-0.16748014092445374,10.917312622070312,0.04795920103788376,-0.11243768036365509,0.029574841260910034
0.3142960863979348,Acceleration_Z,0,3.4642823586166673,1500,12.25,3.474236011505127,3.474236011505127,1500,0.31633231411710566,0.0,-0.21899999678134918,0.1698727160692215,0.339745432138443,9.338213920593262,-0.006128120236098766,0.026377560570836067,0.03410432115197182
0.3142960863979348,Acceleration_Z,0,3.467588587808744,1500,12.25,3.475937604904175,3.475937604904175,1500,0.3143836621184653,0.0,-0.38499999046325684,0.3253899812698364,0.09091779589653015,8.661115646362305,-0.023713160306215286,0.0026644000317901373,0.019450120627880096
0.3142960863979348,Acceleration_Z,0,3.461157947959968,1500,12.256999969482422,3.460900068283081,3.460900068283081,1500,0.31534751557451296,0.0,0.24899999797344208,-0.5909656286239624,-0.23686477541923523,9.486554145812988,0.011456920765340328,-0.022647401317954063,0.02477892115712166
0.3142960863979348,Acceleration_Z,0,3.476311765675172,1500,12.256999969482422,3.4626026153564453,3.4626026153564453,1500,0.31189423055766213,0.0,-0.41999998688697815,-0.22729448974132538,-0.36845633387565613,9.453058242797852,0.011723360046744347,0.007193880155682564,0.022913841530680656
0.3142960863979348,Acceleration_Z,0,3.4707590810513653,1500,12.23900032043457,3.466017007827759,3.466017007827759,1500,0.3135835740444654,0.0,0.2029999941587448,0.24164992570877075,0.5024404525756836,8.917121887207031,0.015986399725079536,0.024246040731668472,0.019450120627880096
0.3142960863979348,Acceleration_Z,0,3.484155947058151,1500,12.23900032043457,3.4592173099517822,3.4592173099517822,1500,0.31143026954359626,0.0,-0.2240000069141388,-0.954636812210083,-0.19858360290527344,9.539190292358398,0.005595240276306868,0.005861680023372173,0.031173480674624443
0.3142960863979348,Acceleration_Z,0,3.494960495415215,1500,12.255999565124512,3.475937843322754,3.475937843322754,1500,0.3101773307469016,0.0,-0.17499999701976776,0.1315915435552597,0.21533161401748657,8.610872268676758,0.015719961374998093,0.028775520622730255,0.023446720093488693
0.3142960863979348,Acceleration_Z,0,3.494450195086927,1500,12.255999565124512,3.4691286087036133,3.4691286087036133,1500,0.3119866653315545,0.0,0.05700000002980232,0.41870036721229553,-0.7153794765472412,10.656522750854492,0.01332200039178133,-0.022114520892500877,0.01891724020242691
0.3142960863979348,Acceleration_Z,0,3.516779030127154,1500,12.251999855041504,3.483311653137207,3.483311653137207,1500,0.30875273125783986,0.0,-0.4860000014305115,0.02631830796599388,0.7440903782844543,9.077424049377441,-0.013055560179054737,0.020249441266059875,0.01625283993780613
0.3142960863979348,Acceleration_Z,0,3.518295640866952,1500,12.251999855041504,3.4935216903686523,3.4935216903686523,1500,0.3104773858397917,0.0,0.2160000056028366,1.1603981256484985,-0.38759690523147583,9.323859214782715,0.0031972802244126797,0.017585041001439095,0.021848080679774284
0.3142960863979348,Acceleration_Z,0,3.530054271239229,1500,12.253999710083008,3.4923899173736572,3.4923899173736572,1500,0.31010859603063917,0.0,-0.23000000417232513,0.7488754987716675,0.27275338768959045,10.352665901184082,-0.06474491953849792,0.06208052113652229,0.033038560301065445
0.3142960863979348,Acceleration_Z,0,3.5431328253408703,1500,12.253999710083008,3.5145151615142822,3.5145151615142822,1500,0.3092958313462455,0.0,-0.20399999618530273,0.6842760443687439,0.16508756577968597,9.209015846252441,0.04795920103788376,-0.07220524549484253,0.051156483590602875
0.2754703794495307,Acceleration_Z,0,3.352859992401181,1500,12.26200008392334,3.5168097019195557,3.5168097019195557,1500,0.3118894767870516,0.0,0.10100000351667404,-0.1004880890250206,0.007177720312029123,8.328548431396484,0.015986399725079536,0.022114520892500877,0.03543652221560478
0.2754703794495307,Acceleration_Z,0,3.3165763797626795,1500,12.26200008392334,3.528731107711792,3.528731107711792,1500,0.309316495631482,0.0,-0.46000000834465027,-0.34931573271751404,0.2440425008535385,10.185185432434082,0.04289684072136879,-0.013055560179054737,0.02824264019727707
0.2754703794495307,Acceleration_Z,0,3.226029482380845,1500,12.255000114440918,3.5420353412628174,3.5420353412628174,1500,0.31186486852041484,0.0,0.2029999941587448,-0.2703607976436615,-0.8374007344245911,7.873959541320801,-0.01891724020242691,0.028509080410003662,0.030640600249171257
0.2754703794495307,Acceleration_Z,0,3.1641292696625145,1500,12.255000114440918,3.3514022827148438,3.3514022827148438,1500,0.30814422685885423,0.0,-0.453000009059906,0.239257350564003,0.6220691204071045,7.986410140991211,0.026377560570836067,-0.05142292007803917,0.024246040731668472
0.2754703794495307,Acceleration_Z,0,3.094136888119625,1500,12.246999740600586,3.315194845199585,3.315194845199585,1500,0.3068087449237446,0.0,-0.03999999910593033,-0.339745432138443,-0.0693846344947815,8.967365264892578,0.035702962428331375,0.008526080287992954,0.022647401317954063
0.2754703794495307,Acceleration_Z,0,3.0239494723237454,1500,12.246999740600586,3.2250430583953857,3.2250430583953857,1500,0.3065319623829524,0.0,0.22599999606609344,0.17226529121398926,0.2129390388727188,8.596516609191895,-0.0077267601154744625,0.014121320098638535,0.02477892115712166
0.2754703794495307,Acceleration_Z,0,2.9731663949878637,1500,12.25100040435791,3.163140296936035,3.163140296936035,1500,0.30253596740428496,0.0,-0.20600000023841858,-0.239257350564003,0.16508756577968597,9.197052955627441,-0.01198980025947094,0.0021315200719982386,0.030374161899089813
0.2754703794495307,Acceleration_Z,0,2.940551631689252,1500,12.25100040435791,3.0933775901794434,3.0933775901794434,1500,0.29604373683662744,0.0,-0.4860000014305115,0.3708488941192627,-0.3660637438297272,8.670686721801758,-0.029841281473636627,-0.005062360316514969,0.012522680684924126
0.2754703794495307,Acceleration_Z,0,2.928204933043819,1500,12.23900032043457,3.022353172302246,3.022353172302246,1500,0.28797592625733637,0.0,-0.36000001430511475,0.39955976605415344,-0.14116182923316956,10.142119407653809,0.021048760041594505,-0.03330500051379204,0.01971656084060669
0.2754703794495307,Acceleration_Z,0,2.9331264036356264,1500,12.23900032043457,2.9713573455810547,2.9713573455810547,1500,0.27982923651235164,0.0,-0.04699999839067459,-0.09809551388025284,0.29189395904541016,9.890898704528809,-0.02158164046704769,-0.050357162952423096,0.012789120897650719
0.2754703794495307,Acceleration_Z,0,2.9525557051480615,1500,12.25100040435791,2.9385387897491455,2.9385387897491455,1500,0.27245700551180096,0.0,-0.17100000381469727,0.2966791093349457,-0.3325677216053009,8.450569152832031,-0.0021315200719982386,0.010924040339887142,0.01891724020242691
0.2754703794495307,Acceleration_Z,0,2.981037898317432,1500,12.25100040435791,2.9266278743743896,2.9266278743743896,1500,0.2667677096412081,0.0,-0.12700000405311584,0.3014642596244812,-0.016748014837503433,8.972150802612305,-0.04369616135954857,0.06847508251667023,0.026910440996289253
0.2754703794495307,Acceleration_Z,0,3.015984224511997,1500,12.237000465393066,2.931781530380249,2.931781530380249,1500,0.2626600548860747,0.0,-0.22100000083446503,0.26796823740005493,-0.9187481999397278,8.792707443237305,-0.008526080287992954,-0.0021315200719982386,0.0231802798807621
0.2754703794495307,Acceleration_Z,0,3.045553758053584,1500,12.237000465393066,2.950476884841919,2.950476884841919,1500,0.2618234204934053,0.0,-0.1289999932050705,0.5670399069786072,0.007177720312029123,10.316777229309082,0.020249441266059875,-0.05222224071621895,0.02397960051894188
0.2754703794495307,Acceleration_Z,0,3.071687690953939,1500,12.244000434875488,2.9793734550476074,2.9793734550476074,1500,0.26262919065301527,0.0,-0.06300000101327896,0.32299742102622986,-0.16508756577968597,9.134845733642578,0.02397960051894188,0.005861680023372173,0.048492081463336945
0.2754703794495307,Acceleration_Z,0,3.0968436106575443,1500,12.244000434875488,3.0133845806121826,3.0133845806121826,1500,0.26353548000361576,0.0,0.25200000405311584,-0.057421762496232986,0.07656235247850418,9.146808624267578,0.011190480552613735,0.0005328800179995596,0.03543652221560478
0.2754703794495307,Acceleration_Z,0,3.115928529377011,1500,12.246999740600586,3.0447402000427246,3.0447402000427246,1500,0.265284898300123,0.0,0.014999999664723873,-0.03588860109448433,-0.36127859354019165,8.256771087646484,-0.019450120627880096,0.06447847932577133,0.019183680415153503
0.2754703794495307,Acceleration_Z,0,3.131802269240517,1500,12.246999740600586,3.0702548027038574,3.0702548027038574,1500,0.26702513296191976,0.0,0.061000000685453415,0.3134271204471588,-0.20336875319480896,9.405206680297852,-0.0026644000317901373,-0.016785720363259315,0.003463720204308629
0.2754703794495307,Acceleration_Z,0,3.1423329197581342,1500,12.25,3.0948264598846436,3.0948264598846436,1500,0.2690587199383884,0.0,0.08699999749660492,0.3277825713157654,-0.004785147029906511,10.225858688354492,0.00905896071344614,-0.005328800063580275,0.00905896071344614
0.2754703794495307,Acceleration_Z,0,3.149935588716287,1500,12.25,3.113541603088379,3.113541603088379,1500,0.2708019467165693,0.0,0.05900000035762787,0.5455067753791809,-0.6699205636978149,10.493827819824219,0.0013322000158950686,-0.005328800063580275,0.020782319828867912
0.2754703794495307,Acceleration_Z,0,3.154727201418014,1500,12.253000259399414,3.1296205520629883,3.1296205520629883,1500,0.2722670964657798,0.0,0.07400000095367432,0.28471624851226807,-0.5096181631088257,9.709063529968262,-0.016519280150532722,-0.007460320368409157,0.030374161899089813
0.2754703794495307,Acceleration_Z,0,3.1686925356036397,1500,12.253000259399414,3.141533136367798,3.141533136367798,1500,0.2711146380697982,0.0,-0.5040000081062317,-0.05263661593198776,-0.6412097215652466,9.491338729858398,0.019450120627880096,-0.0010657600359991193,0.023713160306215286
0.2754703794495307,Acceleration_Z,0,3.1847647566002846,1500,12.24899959564209,3.1473121643066406,3.1473121643066406,1500,0.2696329973435536,0.0,-0.2669999897480011,-0.1196286752820015,-0.17226529121398926,10.376591682434082,0.0013322000158950686,0.03836736083030701,0.01065760012716055
0.2754703794495307,Acceleration_Z,0,3.202233915719829,1500,12.24899959564209,3.152416229248047,3.152416229248047,1500,0.2684950560012124,0.0,-0.35499998927116394,0.11484352499246597,0.6938463449478149,9.335822105407715,0.02504536136984825,-0.01065760012716055,0.011723360046744347
0.2754703794495307,Acceleration_Z,0,3.211763233981927,1500,12.255999565124512,3.1678354740142822,3.1678354740142822,1500,0.2695788262817356,0.0,-0.05700000002980232,0.9354962110519409,-0.138769268989563,10.307207107543945,-0.00905896071344614,-0.0426304005086422,0.012522680684924126
0.3004033385207791,Acceleration_Z,0,3.33632279677378,1500,12.255999565124512,3.1831552982330322,3.1831552982330322,1500,0.2717313307543896,0.0,-0.061000000685453415,0.4210929274559021,0.5646473169326782,9.926787376403809,-0.016519280150532722,-0.026910440996289253,0.02664400078356266
0.3004033385207791,Acceleration_Z,0,3.3678785790718817,1500,12.251999855041504,3.2008349895477295,3.2008349895477295,1500,0.274774517607354,0.0,0.25,0.33017513155937195,-0.031103456392884254,8.534309387207031,-0.038100920617580414,0.049291402101516724,0.03943312168121338
0.3004033385207791,Acceleration_Z,0,3.417992071624385,1500,12.251999855041504,3.209343194961548,3.209343194961548,1500,0.2768292422751895,0.0,0.08299999684095383,0.4713369905948639,-0.44980382919311523,9.328643798828125,0.03890024125576019,-0.092987559735775,0.045028362423181534
0.3004033385207791,Acceleration_Z,0,3.4739822039299106,1500,12.25100040435791,3.3349945545196533,3.3349945545196533,1500,0.27656329048071343,0.0,-0.5040000081062317,0.30385681986808777,-0.23447220027446747,9.290363311767578,-0.007993199862539768,0.025311801582574844,0.022647401317954063
0.3004033385207791,Acceleration_Z,0,3.5120771748362603,1500,12.25100040435791,3.365622043609619,3.365622043609619,1500,0.27972689689268454,0.0,-0.032999999821186066,0.05981433764100075,-0.2631830871105194,9.252081871032715,0.023446720093488693,-0.003996599931269884,0.025311801582574844
0.3004033385207791,Acceleration_Z,0,3.5364047320622647,1500,12.26300048828125,3.4166080951690674,3.4166080951690674,1500,0.28482642170098954,0.0,0.20200000703334808,0.6651354432106018,0.12919896841049194,10.266532897949219,0.007193880155682564,0.005861680023372173,0.0213152002543211
0.3004033385207791,Acceleration_Z,0,3.5761740905613317,1500,12.26300048828125,3.472813606262207,3.472813606262207,1500,0.28468394622643534,0.0,-0.43299999833106995,0.22968704998493195,-0.3086419701576233,9.287970542907715,-0.017851481214165688,0.0213152002543211,0.02238096110522747
0.3004033385207791,Acceleration_Z,0,3.5867732874318223,1500,12.256999969482422,3.510268449783325,3.510268449783325,1500,0.28977453600553105,0.0,-0.014000000432133675,0.7297348976135254,-0.46655184030532837,9.084601402282715,0.03703515976667404,-0.009325399994850159,0.019183680415153503
0.3004033385207791,Acceleration_Z,0,3.5933377091967538,1500,12.256999969482422,3.535804033279419,3.535804033279419,1500,0.2941865088509231,0.0,0.2409999966621399,0.08613264560699463,0.11723610013723373,9.194660186767578,0.008259640075266361,0.020782319828867912,0.035702962428331375
0.3004033385207791,Acceleration_Z,0,3.6083176771429373,1500,12.251999855041504,3.5752015113830566,3.5752015113830566,1500,0.29471270239573877,0.0,-0.49300000071525574,0.48569241166114807,0.17944301664829254,8.598909378051758,-0.004263040143996477,0.022647401317954063,0.03277212008833885
0.3004033385207791,Acceleration_Z,0,3.5929953854887766,1500,12.251999855041504,3.585411548614502,3.585411548614502,1500,0.30059852397843206,0.0,0.19200000166893005,0.2895013988018036,-0.34692317247390747,10.307207107543945,0.008259640075266361,0.031173480674624443,0.03090704046189785
0.3004033385207791,Acceleration_Z,0,3.596893859761368,1500,12.255999565124512,3.591688632965088,3.591688632965088,1500,0.3006751214621239,0.0,-0.49300000071525574,0.1890133023262024,-0.14116182923316956,10.101445198059082,0.019983001053333282,-0.0021315200719982386,0.026910440996289253
0.3004033385207791,Acceleration_Z,0,3.5718975219950524,1500,12.255999565124512,3.607008695602417,3.607008695602417,1500,0.3057151719179326,0.0,0.2070000022649765,0.7034165859222412,0.7847641110420227,8.845344543457031,-0.0173186007887125,-0.040765322744846344,0.0213152002543211
0.3004033385207791,Acceleration_Z,0,3.564613925639158,1500,12.255999565124512,3.591688632965088,3.591688632965088,1500,0.3055843413661725,0.0,-0.4659999907016754,0.5072255730628967,1.4666475057601929,9.826299667358398,-0.0021315200719982386,-0.010391159914433956,0.04023244231939316
0.3004033385207791,Acceleration_Z,0,3.5291111177807175,1500,12.255999565124512,3.595093250274658,3.595093250274658,1500,0.31047934161736357,0.0,0.20900000631809235,0.239257350564003,-0.3062494099140167,8.440999031066895,-0.05089004337787628,0.05728460103273392,0.04049888253211975
0.3004033385207791,Acceleration_Z,0,3.515954505971694,1500,12.263999938964844,3.5701866149902344,3.5701866149902344,1500,0.3093240194596054,0.0,-0.19699999690055847,1.0503398180007935,-0.18422816693782806,10.579959869384766,0.01971656084060669,-0.0964512825012207,0.04369616135954857
0.3004033385207791,Acceleration_Z,0,3.476402259361649,1500,12.263999938964844,3.563373327255249,3.563373327255249,1500,0.31315008755515683,0.0,0.013000000268220901,0.6196765303611755,-0.05981433764100075,9.185090065002441,0.013588440604507923,0.029041960835456848,0.048492081463336945
0.3004033385207791,Acceleration_Z,0,3.4635135181507346,1500,12.244999885559082,3.527240037918091,3.527240037918091,1500,0.31052666616360697,0.0,-0.4659999907016754,0.33017513155937195,0.4210929274559021,8.567805290222168,-0.014387760311365128,0.04476192221045494,0.051156483590602875
0.3004033385207791,Acceleration_Z,0,3.420866579675906,1500,12.244999885559082,3.51363468170166,3.51363468170166,1500,0.3141939154357455,0.0,0.2070000022649765,0.4474112391471863,0.7440903782844543,9.027179718017578,0.023713160306215286,-0.0007993200561031699,0.04289684072136879
0.3004033385207791,Acceleration_Z,0,3.404149983032681,1500,12.241000175476074,3.475083827972412,3.475083827972412,1500,0.31184470963208244,0.0,-0.43799999356269836,-0.1698727160692215,-0.007177720312029123,9.675567626953125,0.03250567987561226,-0.01891724020242691,0.05062360316514969
0.3004033385207791,Acceleration_Z,0,3.3797523044059266,1500,12.241000175476074,3.4614827632904053,3.4614827632904053,1500,0.3111842424173053,0.0,-0.041999999433755875,0.138769268989563,-0.7440903782844543,9.271222114562988,0.017585041001439095,0.013588440604507923,0.024512480944395065
0.3004033385207791,Acceleration_Z,0,3.3476895995271443,1500,12.26200008392334,3.4197354316711426,3.4197354316711426,1500,0.3126818571434926,0.0,0.1860000044107437,0.43784093856811523,0.33496028184890747,9.697100639343262,-0.023446720093488693,-0.0005328800179995596,0.03676871955394745
0.3004033385207791,Acceleration_Z,0,3.3401949321807827,1500,12.26200008392334,3.402705192565918,3.402705192565918,1500,0.3087798424192344,0.0,-0.4690000116825104,0.07177720218896866,-0.7034165859222412,9.058282852172852,0.014121320098638535,0.03836736083030701,0.02930840104818344
0.3004033385207791,Acceleration_Z,0,3.3164571582284386,1500,12.256999969482422,3.3774845600128174,3.3774845600128174,1500,0.30914215304796033,0.0,0.19200000166893005,-0.36845633387565613,0.38759690523147583,8.668293952941895,0.023446720093488693,0.01465420052409172,0.034637201577425
0.3004033385207791,Acceleration_Z,0,3.296486932741773,1500,12.256999969482422,3.345139741897583,3.345139741897583,1500,0.30926536688909156,0.0,0.061000000685453415,-0.31581971049308777,-0.4474112391471863,8.314192771911621,0.017851481214165688,-0.03410432115197182,0.010924040339887142
0.3004033385207791,Acceleration_Z,0,3.2971028027602025,1500,12.243000030517578,3.339618444442749,3.339618444442749,1500,0.3050483762206559,0.0,-0.4690000116825104,-0.2631830871105194,-0.14116182923316956,9.823906898498535,-0.03010772168636322,-0.018650799989700317,0.011190480552613735
0.3004033385207791,Acceleration_Z,0,3.2921613697194987,1500,12.243000030517578,3.315812349319458,3.315812349319458,1500,0.30321498694612803,0.0,-0.0949999988079071,0.4163077771663666,-0.019140588119626045,9.108527183532715,-0.03836736083030701,-0.005328800063580275,0.01465420052409172
0.3004033385207791,Acceleration_Z,0,3.2823647290523783,1500,12.246999740600586,3.294783353805542,3.294783353805542,1500,0.3036299497847485,0.0,0.11999999731779099,-0.019140588119626045,0.009570294059813023,10.201933860778809,0.04103176295757294,-0.06794220209121704,0.033038560301065445
0.3004033385207791,Acceleration_Z,0,3.2894513299924264,1500,12.246999740600586,3.2964839935302734,3.2964839935302734,1500,0.3007404396546098,0.0,-0.41100001335144043,0.5455067753791809,0.5646473169326782,9.216193199157715,0.006661000195890665,-0.047692760825157166,0.029041960835456848
0.3004033385207791,Acceleration_Z,0,3.3030888934809237,1500,12.258999824523926,3.291200876235962,3.291200876235962,1500,0.29729605304585716,0.0,-0.26499998569488525,0.4091300666332245,0.009570294059813023,10.553641319274902,0.0231802798807621,-0.01065760012716055,0.014387760311365128
0.3004033385207791,Acceleration_Z,0,3.303710084733547,1500,12.258999824523926,3.280984878540039,3.280984878540039,1500,0.2980409133978327,0.0,0.1679999977350235,-0.21533161401748657,0.1818355917930603,8.397933006286621,-0.004263040143996477,0.046893440186977386,0.048492081463336945
0.3004033385207791,Acceleration_Z,0,3.3047745338345793,1500,12.256999969482422,3.287259340286255,3.287259340286255,1500,0.2990401398037542,0.0,0.07900000363588333,0.12680639326572418,0.1818355917930603,8.895587921142578,-0.005861680023372173,0.04183107987046242,0.024246040731668472
0.3004033385207791,Acceleration_Z,0,3.3230757321270126,1500,12.256999969482422,3.3025805950164795,3.3025805950164795,1500,0.2960646122183875,0.0,-0.4090000092983246,-0.19619102776050568,0.5120107531547546,9.852617263793945,0.019183680415153503,0.007993199862539768,0.042363960295915604
0.3004033385207791,Acceleration_Z,0,3.3354912691729086,1500,12.255999565124512,3.3023109436035156,3.3023109436035156,1500,0.2950268030124983,0.0,-0.1080000028014183,0.35410088300704956,0.48569241166114807,9.721026420593262,0.015453520230948925,0.047692760825157166,0.03437076136469841
0.3004033385207791,Acceleration_Z,0,3.3414348772840072,1500,12.255999565124512,3.3023109436035156,3.3023109436035156,1500,0.29612581524371656,0.0,0.10300000011920929,-0.18662072718143463,0.7393051981925964,9.838262557983398,-0.015719961374998093,0.0031972802244126797,0.026111120358109474
0.3004033385207791,Acceleration_Z,0,3.355202910159134,1500,12.237000465393066,3.322685480117798,3.322685480117798,1500,0.295451132029687,0.0,-0.18000000715255737,-0.29907169938087463,0.23447220027446747,9.826299667358398,-0.004263040143996477,0.053820881992578506,0.03517008200287819
0.3004033385207791,Acceleration_Z,0,3.3744196189585023,1500,12.237000465393066,3.334582567214966,3.334582567214966,1500,0.293675781614677,0.0,-0.3370000123977661,0.9259259700775146,-0.5048329830169678,9.307110786437988,0.0173186007887125,-0.0031972802244126797,0.0231802798807621
0.34449318018659564,Acceleration_Z,0,3.5980832538657532,1500,12.246999740600586,3.3407094478607178,3.3407094478607178,1500,0.2944768778419353,0.0,0.15700000524520874,0.5359364748001099,0.28710880875587463,9.290363311767578,0.008792520500719547,-0.0077267601154744625,0.008526080287992954
0.34449318018659564,Acceleration_Z,0,3.672191476174065,1500,12.246999740600586,3.3543171882629395,3.3543171882629395,1500,0.2952612735179868,0.0,0.020999999716877937,0.7656235098838806,-0.028710881248116493,9.847832679748535,-0.03836736083030701,-0.055419523268938065,-0.0007993200561031699
0.34449318018659564,Acceleration_Z,0,3.786536185513045,1500,12.244999885559082,3.3724770545959473,3.3724770545959473,1500,0.2946557730119657,0.0,-0.421999990940094,0.7369126677513123,-0.10766580700874329,9.622930526733398,-0.04715988039970398,-0.005328800063580275,0.02477892115712166
0.34449318018659564,Acceleration_Z,0,3.885829038822444,1500,12.244999885559082,3.596968650817871,3.596968650817871,1500,0.29720622900822913,0.0,-0.06400000303983688,0.3206048607826233,-0.13398411870002747,8.697004318237305,0.02504536136984825,0.009591840207576752,0.0463605597615242
0.34449318018659564,Acceleration_Z,0,3.982963177397136,1500,12.25100040435791,3.6701955795288086,3.6701955795288086,1500,0.29953063492893556,0.0,-0.05000000074505806,1.0718729496002197,-0.6436022520065308,8.874054908752441,-0.015187080949544907,-0.02397960051894188,0.0231802798807621
0.34449318018659564,Acceleration_Z,0,4.058650088380545,1500,12.25100040435791,3.7841978073120117,3.7841978073120117,1500,0.30515772510419076,0.0,-0.125,1.062302589416504,0.6483874320983887,10.355057716369629,0.049291402101516724,-0.03703515976667404,0.042363960295915604
0.34449318018659564,Acceleration_Z,0,4.134623226696155,1500,12.25,3.8842709064483643,3.8842709064483643,1500,0.3086723927000421,0.0,-0.2930000126361847,1.0240215063095093,0.028710881248116493,10.390946388244629,-0.013588440604507923,0.028509080410003662,0.034637201577425
0.34449318018659564,Acceleration_Z,0,4.1727336156428745,1500,12.25,3.981250047683716,3.981250047683716,1500,0.3180208228734217,0.0,0.2199999988079071,0.9833477139472961,-0.41391521692276,9.338213920593262,0.003996599931269884,0.03357144072651863,0.02930840104818344
0.34449318018659564,Acceleration_Z,0,4.184954227631686,1500,12.253000259399414,4.057104587554932,4.057104587554932,1500,0.3293211357009453,0.0,-0.1420000046491623,0.7943344116210938,1.2776342630386353,11.30251693725586,0.04396260157227516,0.02584468014538288,0.014387760311365128
0.34449318018659564,Acceleration_Z,0,4.197266046205005,1500,12.253000259399414,4.131984233856201,4.131984233856201,1500,0.33568271120465953,0.0,-0.2770000100135803,1.0479471683502197,-1.0120586156845093,8.905158996582031,0.010924040339887142,0.03517008200287819,0.022647401317954063
0.34449318018659564,Acceleration_Z,0,4.1954863843966805,1500,12.26300048828125,4.171123504638672,4.171123504638672,1500,0.34118810142880357,0.0,-0.289000004529953,0.1626949906349182,1.4283664226531982,11.31447982788086,0.01065760012716055,0.03250567987561226,0.0173186007887125
0,Acceleration_Z,0,2.51731014002549,1500,12.26300048828125,4.183045864105225,4.183045864105225,1500,0.34508516579461845,0.0,-0.2759999930858612,-0.22729448974132538,0.478514701128006,10.651737213134766,-0.004795920103788376,0.04209752008318901,0.02664400078356266
0,Acceleration_Z,0,2.0010887988964208,1500,12.25100040435791,4.195967674255371,4.195967674255371,1500,0.34894013887351627,0.0,-0.028999999165534973,-0.19619102776050568,-0.7488754987716675,9.283185005187988,0.011723360046744347,0.009591840207576752,0.02584468014538288
0,Acceleration_Z,0,1.2274237670237698,1500,12.25100040435791,4.194266319274902,4.194266319274902,1500,0.3472222278196675,0.0,0.10300000011920929,0.47372955083847046,-0.38759690523147583,8.862092018127441,-0.011190480552613735,-0.04822564125061035,0.019983001053333282
0,Acceleration_Z,0,0.5285340928916589,1500,12.253000259399414,2.515268564224243,2.515268564224243,1500,0.330079462028115,0.0,-0.4440000057220459,-0.32299742102622986,-0.34213802218437195,8.567805290222168,0.026910440996289253,-0.003996599931269884,0.06394559890031815
0,Acceleration_Z,0,0.0,1500,12.253000259399414,1.9996216297149658,1.9996216297149658,1500,0.2959574589733304,0.0,-0.07699999958276749,-1.6987271308898926,0.8350081443786621,10.280888557434082,0.0010657600359991193,-0.06474491953849792,0.10551024228334427
0,Acceleration_Z,0,0.0,1500,12.234999656677246,1.2268985509872437,1.2268985509872437,1500,0.22673999430541003,0.0,-0.01899999938905239,-1.227390170097351,0.18422816693782806,8.845344543457031,0.021048760041594505,-0.005595240276306868,0.05302156135439873
0,Acceleration_Z,0,0.0,1500,12.234999656677246,0.5267847180366516,0.5267847180366516,1500,0.1324961013024229,0.0,-0.125,-1.0240215063095093,-0.6005359292030334,10.589529991149902,-0.0005328800179995596,-0.006661000195890665,0.03410432115197182
0,Acceleration_Z,0,0.0,1500,12.223999977111816,0.0,0.0,1500,0.06105856300961006,0.0,-0.08299999684095383,-1.0359842777252197,-0.7895492315292358,9.345392227172852,0.0005328800179995596,-0.00905896071344614,0.006394560448825359
0,Acceleration_Z,0,0.0,1500,12.223999977111816,0.0,0.0,1500,0.02415299309346304,0.0,0.22599999606609344,-0.6220691204071045,-0.6986314654350281,9.046319961547852,-0.0026644000317901373,-0.007993199862539768,0.010924040339887142
0,Acceleration_Z,0,0.0,1500,12.243000030517578,0.0,0.0,1500,0.011692125604361923,0.0,0.009999999776482582,-0.08613264560699463,-0.007177720312029123,9.287970542907715,-0.00452948035672307,-0.0015986401122063398,0.006927440408617258
0,Acceleration_Z,0,0.0,1500,12.243000030517578,0.0,0.0,1500,0.006994258236364362,0.0,0.0020000000949949026,0.5837879180908203,0.055029191076755524,9.378888130187988,0.00452948035672307,-0.009325399994850159,-0.01705216057598591
0,Acceleration_Z,0,0.0,1500,12.24899959564209,0.0,0.0,1500,0.004788879293932877,0.0,0.0,0.3588860332965851,0.014355440624058247,9.362139701843262,0.005062360316514969,-0.005861680023372173,0.0005328800179995596
0,Acceleration_Z,0,0.0,1500,12.24899959564209,0.0,0.0,1500,0.003566125988771383,0.0,0.0,0.13637669384479523,0.057421762496232986,9.378888130187988,0.0013322000158950686,0.005328800063580275,0.0029308400116860867
0,Acceleration_Z,0,0.0,1500,12.255000114440918,0.0,0.0,1500,0.0028066113621320983,0.0,0.0,0.23447220027446747,0.05981433764100075,9.328643798828125,0.0029308400116860867,0.0005328800179995596,0.0013322000158950686
0,Acceleration_Z,0,0.0,1500,12.255000114440918,0.0,0.0,1500,0.0022958449827493845,0.0,0.0,0.28710880875587463,-0.10527323186397552,9.268829345703125,0.0018650800921022892,-0.0018650800921022892,0.0010657600359991193
0,Acceleration_Z,0,0.0,1500,12.246000289916992,0.0,0.0,1500,0.0019319254170995798,0.0,0.0,0.21533161401748657,-0.021533161401748657,9.405206680297852,0.0013322000158950686,0.0015986401122063398,0.0010657600359991193
0,Acceleration_Z,0,0.0,1500,12.246000289916992,0.0,0.0,1500,0.0016610693698143836,0.0,0.0,0.2512202262878418,-0.02392573468387127,9.364532470703125,0.002397960051894188,0.0002664400089997798,0.0007993200561031699
0,Acceleration_Z,0,0.0,1500,12.23900032043457,0.0,0.0,1500,0.0014525096727848112,0.0,0.0,0.2942865490913391,-0.07416977733373642,9.381280899047852,0.0021315200719982386,-0.0018650800921022892,-0.0002664400089997798
0,Acceleration_Z,0,0.0,1500,12.23900032043457,0.0,0.0,1500,0.00128749813830364,0.0,0.0,0.2440425008535385,-0.016748014837503433,9.421954154968262,0.002397960051894188,-0.0010657600359991193,0.0010657600359991193
0,Acceleration_Z,0,0.0,1500,12.244999885559082,0.0,0.0,1500,0.0011540164331070573,0.0,0.0,0.2129390388727188,-0.09570293873548508,9.366925239562988,0.0018650800921022892,0.0002664400089997798,0.0005328800179995596
0,Acceleration_Z,0,0.0,1500,12.244999885559082,0.0,0.0,1500,0.0010440339483857226,0.0,0.0,0.29907169938087463,-0.02392573468387127,9.414776802062988,0.003996599931269884,-0.0013322000158950686,0.0010657600359991193
