Reference,Bias_Sensor,Bias_val,Throttle_Control,Servo_Control,Voltage,Throttle_A,Throttle_B,Servo,Linear_X,Linear_Y,Linear_Z,Acceleration_X,Acceleration_Y,Acceleration_Z,Angular_X,Angular_Y,Angular_Z
0.3164771406633287,Acceleration_X,0,1.6943977564183794,1500,12.25,0.0,0.0,1500,0.0,0.0,0.0,0.29907169938087463,-0.07656235247850418,9.342999458312988,0.0002664400089997798,0.0002664400089997798,-0.0010657600359991193
0.3164771406633287,Acceleration_X,0,2.213907218245539,1500,12.251999855041504,0.0,0.0,1500,0.0,0.0,0.0,0.28710880875587463,-0.1004880890250206,9.366925239562988,-0.0002664400089997798,-0.0002664400089997798,-0.0015986401122063398
0.3164771406633287,Acceleration_X,0,2.883124347805467,1500,12.251999855041504,0.0,0.0,1500,0.008750000037252903,0.0,0.0,0.33017513155937195,-0.04785146936774254,9.335822105407715,0.0,0.0002664400089997798,0.0002664400089997798
0.3164771406633287,Acceleration_X,0,3.491038434580274,1500,12.23900032043457,1.6930617094039917,1.6930617094039917,1500,0.02758620646918429,0.0,-0.13600000739097595,1.402048110961914,0.05981433764100075,8.653938293457031,0.0002664400089997798,-0.005861680023372173,0.0026644000317901373
0.3164771406633287,Acceleration_X,0,3.9682049061941735,1500,12.23900032043457,2.211519479751587,2.211519479751587,1500,0.06638150855799785,0.0,-0.11599999666213989,1.354196548461914,0.31103456020355225,9.634893417358398,0.010124720633029938,0.023446720093488693,0.004795920103788376
0.3164771406633287,Acceleration_X,0,4.324707640828241,1500,12.256999969482422,2.8820974826812744,2.8820974826812744,1500,0.11526025412605469,0.0,-0.02800000086426735,1.1508278846740723,-0.043066322803497314,9.450665473937988,-0.0031972802244126797,0.023713160306215286,0.0002664400089997798
0.3164771406633287,Acceleration_X,0,4.450320243821026,1500,12.256999969482422,3.489840269088745,3.489840269088745,1500,0.19080126684453538,0.0,-0.38999998569488525,1.6987271308898926,-0.478514701128006,9.086994171142578,-0.0002664400089997798,0.010391159914433956,-0.005595240276306868
0.3164771406633287,Acceleration_X,0,4.505015171242968,1500,12.293000221252441,3.9661998748779297,3.9661998748779297,1500,0.25025321852240484,0.0,0.0,1.5384247303009033,0.3947746157646179,8.778351783752441,0.01465420052409172,-0.020249441266059875,0.009591840207576752
0.3164771406633287,Acceleration_X,0,4.461023391380159,1500,12.293000221252441,4.323038578033447,4.323038578033447,1500,0.2998730377089563,0.0,-0.28299999237060547,1.3853000402450562,-0.5215809941291809,9.788018226623535,0.0026644000317901373,-0.00452948035672307,0.01465420052409172
0.3164771406633287,Acceleration_X,0,4.416377829173765,1500,12.289999961853027,4.448297023773193,4.448297023773193,1500,0.3249591204434844,0.0,-0.09799999743700027,1.0431619882583618,0.30385681986808777,8.783137321472168,-0.022647401317954063,-0.002397960051894188,-0.005062360316514969
0.3164771406633287,Acceleration_X,0,4.318763977800081,1500,12.289999961853027,4.504626274108887,4.504626274108887,1500,0.34528927396565434,0.0,-0.38999998569488525,0.19140587747097015,-0.08374007046222687,7.527036190032959,-0.006394560448825359,0.04875852167606354,0.039166681468486786
0.3164771406633287,Acceleration_X,0,4.208122656529057,1500,12.293999671936035,4.45999002456665,4.45999002456665,1500,0.358100663256572,0.0,-0.31299999356269836,0.36127859354019165,1.4116183519363403,11.448464393615723,0.10124720633029938,-0.08392859995365143,0.029574841260910034
0.3164771406633287,Acceleration_X,0,4.094674084795445,1500,12.293999671936035,4.415595054626465,4.415595054626465,1500,0.3642859483620519,0.0,-0.27799999713897705,0.6292468309402466,-0.28710880875587463,8.548665046691895,0.01705216057598591,0.006128120236098766,0.027176881209015846
0.3164771406633287,Acceleration_X,0,3.974654128368538,1500,12.281999588012695,4.3174638748168945,4.3174638748168945,1500,0.36788397036881043,0.0,-0.34200000762939453,1.2943822145462036,-0.8804670572280884,8.962580680847168,-0.01705216057598591,0.04103176295757294,0.04103176295757294
0.3164771406633287,Acceleration_X,0,3.8641889692957663,1500,12.281999588012695,4.206584930419922,4.206584930419922,1500,0.3673933343944394,0.0,-0.3310000002384186,-0.2129390388727188,0.1315915435552597,9.163556098937988,-0.0031972802244126797,0.0037301601842045784,-0.0007993200561031699
0.3164771406633287,Acceleration_X,0,3.7425634956933633,1500,12.26300048828125,4.092776298522949,4.092776298522949,1500,0.3687837710065692,0.0,-0.35100001096725464,0.5670399069786072,-0.9115704894065857,9.649249076843262,0.014121320098638535,0.021048760041594505,-0.00452948035672307
0.3164771406633287,Acceleration_X,0,3.6194635311893832,1500,12.26300048828125,3.973552703857422,3.973552703857422,1500,0.37012282249126527,0.0,-0.17299999296665192,-0.057421762496232986,-0.20336875319480896,8.773567199707031,-0.011723360046744347,0.01332200039178133,0.014121320098638535
0.3164771406633287,Acceleration_X,0,3.5064291302099795,1500,12.255000114440918,3.8637290000915527,3.8637290000915527,1500,0.3687560700001962,0.0,0.10899999737739563,0.7871567010879517,-1.110154151916504,7.783041477203369,-0.017851481214165688,0.01625283993780613,0.011190480552613735
0.3164771406633287,Acceleration_X,0,3.420124556349924,1500,12.255000114440918,3.7411792278289795,3.7411792278289795,1500,0.3620705723434726,0.0,0.024000000208616257,0.7345200777053833,0.7273423671722412,9.383673667907715,-0.003463720204308629,-0.054620202630758286,0.022647401317954063
0.3164771406633287,Acceleration_X,0,3.3338656291301825,1500,12.24899959564209,3.618558645248413,3.618558645248413,1500,0.3576063113279037,0.0,-0.34200000762939453,1.110154151916504,-0.7775864005088806,9.299933433532715,-0.021048760041594505,-0.019450120627880096,0.016519280150532722
0.3164771406633287,Acceleration_X,0,3.286730944462714,1500,12.24899959564209,3.50457501411438,3.50457501411438,1500,0.34750748552426675,0.0,0.04600000008940697,0.6938463449478149,-0.6651354432106018,10.065556526184082,-0.04955784231424332,0.021048760041594505,0.011456920765340328
0.3164771406633287,Acceleration_X,0,3.238052331184849,1500,12.255000114440918,3.419485330581665,3.419485330581665,1500,0.34148516945062457,0.0,-0.375,-0.35410088300704956,-0.4474112391471863,9.359747886657715,0.046893440186977386,-0.027176881209015846,0.02584468014538288
0.3164771406633287,Acceleration_X,0,3.240026668011004,1500,12.255000114440918,3.332679271697998,3.332679271697998,1500,0.32848799850919747,0.0,0.07199999690055847,0.6005359292030334,-0.8445784449577332,9.522442817687988,-0.02824264019727707,-0.01465420052409172,-0.01465420052409172
0.3164771406633287,Acceleration_X,0,3.236847479722287,1500,12.244000434875488,3.285473346710205,3.285473346710205,1500,0.3214233526614095,0.0,-0.30000001192092896,-0.05263661593198776,0.6818834543228149,9.577471733093262,0.00452948035672307,0.0010657600359991193,0.014387760311365128
0.3164771406633287,Acceleration_X,0,3.2431941379684526,1500,12.244000434875488,3.236157178878784,3.236157178878784,1500,0.31665494008588624,0.0,-0.024000000208616257,-0.07656235247850418,-0.28710880875587463,8.737678527832031,-0.02238096110522747,0.02824264019727707,0.015986399725079536
0.3164771406633287,Acceleration_X,0,3.2834001238998956,1500,12.260000228881836,3.2386832237243652,3.2386832237243652,1500,0.30749221440151564,0.0,0.052000001072883606,0.17226529121398926,0.27275338768959045,9.309503555297852,0.006661000195890665,0.03250567987561226,0.015719961374998093
0.3164771406633287,Acceleration_X,0,3.3474355587016666,1500,12.260000228881836,3.2352778911590576,3.2352778911590576,1500,0.296942489896726,0.0,-0.23399999737739563,0.5144032835960388,0.6340319514274597,8.988898277282715,0.023713160306215286,-0.01971656084060669,0.0018650800921022892
0.3164771406633287,Acceleration_X,0,3.3953632419835005,1500,12.253000259399414,3.2419395446777344,3.2419395446777344,1500,0.29439202810277937,0.0,-0.3930000066757202,0.2009761780500412,-0.2129390388727188,9.594220161437988,0.00905896071344614,0.013055560179054737,0.011190480552613735
0.3164771406633287,Acceleration_X,0,3.4399715329645,1500,12.253000259399414,3.282783031463623,3.282783031463623,1500,0.2950198925471304,0.0,-0.12700000405311584,-0.04785146936774254,0.23686477541923523,9.383673667907715,-0.019183680415153503,0.03090704046189785,0.005062360316514969
0.3164771406633287,Acceleration_X,0,3.4858628737260626,1500,12.270999908447266,3.3455517292022705,3.3455517292022705,1500,0.29561323728282946,0.0,0.08299999684095383,0.48090726137161255,0.007177720312029123,10.833572387695312,-0.0015986401122063398,0.009591840207576752,-0.006661000195890665
0.3164771406633287,Acceleration_X,0,3.5454397867687537,1500,12.270999908447266,3.3932723999023438,3.3932723999023438,1500,0.29311190711547386,0.0,0.00800000037997961,0.7680160999298096,-0.045458897948265076,10.187578201293945,0.02744332142174244,-0.01891724020242691,0.003996599931269884
0.3164771406633287,Acceleration_X,0,3.588748624149512,1500,12.26200008392334,3.438469171524048,3.438469171524048,1500,0.29460825441679994,0.0,-0.36800000071525574,0.2823236584663391,-0.3014642596244812,9.610967636108398,-0.007193880155682564,-0.026910440996289253,-0.009591840207576752
0.3164771406633287,Acceleration_X,0,3.6281434282821388,1500,12.26200008392334,3.4844517707824707,3.4844517707824707,1500,0.29687612803991503,0.0,-0.06800000369548798,0.17226529121398926,0.5096181631088257,9.488946914672852,-0.00905896071344614,0.022647401317954063,-0.01971656084060669
0.3164771406633287,Acceleration_X,0,3.6754609864914856,1500,12.277999877929688,3.543567180633545,3.543567180633545,1500,0.2965819866195592,0.0,0.01899999938905239,0.8972150683403015,-0.691453754901886,9.268829345703125,-0.04582768306136131,0.019450120627880096,-0.0037301601842045784
0.3164771406633287,Acceleration_X,0,3.7029629024905235,1500,12.277999877929688,3.5861990451812744,3.5861990451812744,1500,0.30009654399658997,0.0,-0.3659999966621399,0.7704086899757385,-0.8900373578071594,9.371710777282715,0.07646828144788742,-0.020249441266059875,0.005861680023372173
0.3164771406633287,Acceleration_X,0,3.731484259970622,1500,12.265000343322754,3.626692533493042,3.626692533493042,1500,0.3023934806910492,0.0,0.004000000189989805,0.12680639326572418,0.3277825713157654,7.605991363525391,-0.0026644000317901373,0.0463605597615242,0.010124720633029938
0.3164771406633287,Acceleration_X,0,3.7480656162010635,1500,12.265000343322754,3.674389600753784,3.674389600753784,1500,0.30588781331937803,0.0,-0.1599999964237213,0.2129390388727188,0.22968704998493195,9.008039474487305,0.0010657600359991193,0.027176881209015846,-0.0031972802244126797
0.3164771406633287,Acceleration_X,0,3.7601524180034773,1500,12.26200008392334,3.700739860534668,3.700739860534668,1500,0.30888448213761005,0.0,-0.14900000393390656,-0.2631830871105194,0.3828117549419403,8.900373458862305,-0.022114520892500877,0.058883242309093475,0.007193880155682564
0.3164771406633287,Acceleration_X,0,3.7549949664504036,1500,12.26200008392334,3.729691505432129,3.729691505432129,1500,0.31396441842593675,0.0,-0.19099999964237213,-0.16748014092445374,0.275145947933197,8.819025993347168,0.007193880155682564,0.061281200498342514,-0.01065760012716055
0.3164771406633287,Acceleration_X,0,3.761026097376833,1500,12.270000457763672,3.747462511062622,3.747462511062622,1500,0.3147248445668816,0.0,0.006000000052154064,-0.04067374765872955,0.7249497771263123,8.790314674377441,0.051955800503492355,-0.0173186007887125,0.0
0.3164771406633287,Acceleration_X,0,3.739713312004173,1500,12.270000457763672,3.7593917846679688,3.7593917846679688,1500,0.32005770186272275,0.0,-0.36800000071525574,0.4210929274559021,-1.3302708864212036,8.986506462097168,0.049291402101516724,0.047692760825157166,-0.004263040143996477
0.3164771406633287,Acceleration_X,0,3.737806236057416,1500,12.270999908447266,3.752880811691284,3.752880811691284,1500,0.3196703572280716,0.0,0.07199999690055847,0.6459948420524597,-1.4068331718444824,9.388458251953125,0.005861680023372173,0.02051588147878647,0.010924040339887142
0.3164771406633287,Acceleration_X,0,3.70964111818775,1500,12.270999908447266,3.7596981525421143,3.7596981525421143,1500,0.32393140627941175,0.0,-0.3050000071525574,-0.07416977733373642,0.550291895866394,9.632500648498535,0.018650799989700317,0.029841281473636627,0.016785720363259315
0.3164771406633287,Acceleration_X,0,3.6962151252416953,1500,12.265000343322754,3.7374181747436523,3.7374181747436523,1500,0.3239435489789207,0.0,0.07400000095367432,0.1698727160692215,-0.06220691278576851,9.094171524047852,-0.0021315200719982386,-0.031439922749996185,0.015719961374998093
0.3164771406633287,Acceleration_X,0,3.6823009244241414,1500,12.265000343322754,3.7357146739959717,3.7357146739959717,1500,0.32335001597409824,0.0,-0.2630000114440918,0.5478993058204651,-0.10527323186397552,8.582160949707031,-0.026111120358109474,-0.005595240276306868,-0.013588440604507923
0.3164771406633287,Acceleration_X,0,3.6540402845587683,1500,12.274999618530273,3.7080729007720947,3.7080729007720947,1500,0.32589363450067477,0.0,-0.2590000033378601,0.8230453133583069,0.7895492315292358,8.969758033752441,-0.06447847932577133,-0.0005328800179995596,0.009591840207576752
0.2566855277815437,Acceleration_X,0,3.3504069891102777,1500,12.274999618530273,3.6944339275360107,3.6944339275360107,1500,0.32475719218841603,0.0,-0.0020000000949949026,0.2631830871105194,-0.08852522075176239,10.835965156555176,0.08179708570241928,-0.0655442401766777,0.005595240276306868
0.2566855277815437,Acceleration_X,0,3.2320375615274135,1500,12.255999565124512,3.6819064617156982,3.6819064617156982,1500,0.32724865671959025,0.0,-0.3400000035762787,0.8637190461158752,-1.0120586156845093,8.302229881286621,-0.03277212008833885,0.01625283993780613,-0.0077267601154744625
0.2566855277815437,Acceleration_X,0,3.0900666057018285,1500,12.255999565124512,3.652968645095825,3.652968645095825,1500,0.3241967703612848,0.0,0.11400000005960464,0.2583979368209839,0.277538537979126,10.670877456665039,0.014387760311365128,-0.005595240276306868,-0.003996599931269884
0.2566855277815437,Acceleration_X,0,2.9358212517576936,1500,12.255999565124512,3.349973201751709,3.349973201751709,1500,0.32416650411557657,0.0,-0.3880000114440918,-0.4210929274559021,-0.02631830796599388,10.548856735229492,-0.02504536136984825,0.0540873222053051,0.0007993200561031699
0.2566855277815437,Acceleration_X,0,2.811377767584174,1500,12.255999565124512,3.2308175563812256,3.2308175563812256,1500,0.3185332863452326,0.0,0.07000000029802322,-0.14355440437793732,0.028710881248116493,9.627716064453125,-0.006394560448825359,0.03170635923743248,0.01332200039178133
0.2566855277815437,Acceleration_X,0,2.710927904212836,1500,12.248000144958496,3.0892179012298584,3.0892179012298584,1500,0.309631941078849,0.0,-0.34200000762939453,0.29189395904541016,-0.4330558180809021,9.010432243347168,0.0386338010430336,-0.01465420052409172,-0.009858280420303345
0.2566855277815437,Acceleration_X,0,2.6203209744613196,1500,12.248000144958496,2.9344167709350586,2.9344167709350586,1500,0.30226041018804367,0.0,-0.40400001406669617,0.10288066416978836,-0.5096181631088257,9.603790283203125,0.003463720204308629,0.025578241795301437,-0.013055560179054737
0.2566855277815437,Acceleration_X,0,2.552525180294349,1500,12.255999565124512,2.8103690147399902,2.8103690147399902,1500,0.29388911279850705,0.0,-0.07900000363588333,0.2512202262878418,-0.25361278653144836,9.515264511108398,0.0,0.024512480944395065,0.014387760311365128
0.2566855277815437,Acceleration_X,0,2.5151339319165658,1500,12.255999565124512,2.708235502243042,2.708235502243042,1500,0.28295779579610575,0.0,0.026000000536441803,0.009570294059813023,-0.031103456392884254,9.299933433532715,-0.021048760041594505,0.06261340528726578,0.019450120627880096
0.2566855277815437,Acceleration_X,0,2.537303786425089,1500,12.26099967956543,2.6190857887268066,2.6190857887268066,1500,0.2643999760492387,0.0,-0.04600000008940697,0.5144032835960388,-0.3206048607826233,9.654033660888672,0.0173186007887125,-0.03330500051379204,0.006661000195890665
0.2566855277815437,Acceleration_X,0,2.5896590636536443,1500,12.26099967956543,2.550968885421753,2.550968885421753,1500,0.24696477792895738,0.0,-0.37700000405311584,0.11484352499246597,-0.3899894952774048,9.450665473937988,-0.022114520892500877,-0.053820881992578506,0.01705216057598591
0.2566855277815437,Acceleration_X,0,2.6270399480448927,1500,12.26200008392334,2.5137100219726562,2.5137100219726562,1500,0.2408947887747736,0.0,-0.29600000381469727,0.16508756577968597,0.7823715209960938,10.240214347839355,-0.01465420052409172,-0.021848080679774284,0.0173186007887125
0.2566855277815437,Acceleration_X,0,2.6766176990994435,1500,12.26200008392334,2.5358495712280273,2.5358495712280273,1500,0.23699422372704196,0.0,0.04800000041723251,0.6436022520065308,0.4474112391471863,9.307110786437988,-0.036502283066511154,-0.005062360316514969,0.027176881209015846
0.2566855277815437,Acceleration_X,0,2.758127205298554,1500,12.253999710083008,2.5886573791503906,2.5886573791503906,1500,0.22867752460962454,0.0,-0.004000000189989805,0.03588860109448433,-0.12680639326572418,7.699301719665527,-0.0426304005086422,-0.0015986401122063398,0.015986399725079536
0.2566855277815437,Acceleration_X,0,2.8089048257109255,1500,12.253999710083008,2.6261003017425537,2.6261003017425537,1500,0.22983080198073907,0.0,-0.3659999966621399,-0.04067374765872955,-0.7201645970344543,9.871758460998535,0.05595240369439125,-0.062346961349248886,0.009858280420303345
0.2566855277815437,Acceleration_X,0,2.8593921065986,1500,12.269000053405762,2.675323724746704,2.675323724746704,1500,0.23206291340335272,0.0,0.006000000052154064,-0.09809551388025284,0.1196286752820015,8.551057815551758,-0.0077267601154744625,-0.004263040143996477,0.018650799989700317
0.2566855277815437,Acceleration_X,0,2.9041688516967223,1500,12.269000053405762,2.7571170330047607,2.7571170330047607,1500,0.23462874951014198,0.0,0.09399999678134918,0.6005359292030334,0.2823236584663391,10.845535278320312,0.020249441266059875,-0.01198980025947094,0.02238096110522747
0.2566855277815437,Acceleration_X,0,2.9473084725865646,1500,12.234999656677246,2.8072526454925537,2.8072526454925537,1500,0.23638360373003311,0.0,0.06800000369548798,1.0072734355926514,0.13637669384479523,9.871758460998535,0.011190480552613735,0.006128120236098766,0.021048760041594505
0.2566855277815437,Acceleration_X,0,2.999796705850497,1500,12.234999656677246,2.858231782913208,2.858231782913208,1500,0.23527921863461948,0.0,-0.08500000089406967,0.4713369905948639,-0.3899894952774048,7.8715667724609375,-0.025578241795301437,0.031173480674624443,0.013055560179054737
0.2566855277815437,Acceleration_X,0,3.048031307543802,1500,12.253999710083008,2.903517246246338,2.903517246246338,1500,0.23507786415462692,0.0,-0.3659999966621399,0.38520434498786926,0.3828117549419403,8.955402374267578,0.007460320368409157,0.0031972802244126797,0.015453520230948925
0.2566855277815437,Acceleration_X,0,3.0952027084356972,1500,12.253999710083008,2.946065902709961,2.946065902709961,1500,0.23534287379210908,0.0,-0.33500000834465027,0.08613264560699463,0.26796823740005493,8.606086730957031,-0.003996599931269884,0.022114520892500877,0.016785720363259315
0.2566855277815437,Acceleration_X,0,3.1400435835954084,1500,12.265999794006348,2.9983556270599365,2.9983556270599365,1500,0.2360427604584123,0.0,-0.3529999852180481,0.7560532093048096,0.28471624851226807,8.912336349487305,0.008526080287992954,-0.024246040731668472,-0.005595240276306868
0.2566855277815437,Acceleration_X,0,3.1808485264813298,1500,12.265999794006348,3.047760248184204,3.047760248184204,1500,0.23732444518464962,0.0,-0.37700000405311584,0.8732893466949463,-0.15790985524654388,8.620442390441895,-0.004795920103788376,-0.006927440408617258,-0.008792520500719547
0.2566855277815437,Acceleration_X,0,3.2204900287645026,1500,12.26099967956543,3.0941994190216064,3.0941994190216064,1500,0.23834279752472093,0.0,-0.3709999918937683,0.5024404525756836,-0.5981433987617493,9.055891036987305,-0.022647401317954063,0.022647401317954063,-0.00452948035672307
0.2566855277815437,Acceleration_X,0,3.2549247148104388,1500,12.26099967956543,3.138475179672241,3.138475179672241,1500,0.23991516899531146,0.0,-0.35499998927116394,0.12441382557153702,-0.23686477541923523,8.610872268676758,-0.027976201847195625,0.07939912378787994,0.005861680023372173
0.2566855277815437,Acceleration_X,0,3.2794679248882317,1500,12.26099967956543,3.1793453693389893,3.1793453693389893,1500,0.242894655955082,0.0,-0.3619999885559082,0.06220691278576851,0.15790985524654388,10.594315528869629,0.00905896071344614,-0.013588440604507923,0.008792520500719547
0.2566855277815437,Acceleration_X,0,3.2820643592782788,1500,12.26099967956543,3.2185122966766357,3.2185122966766357,1500,0.24925213972956461,0.0,-0.2939999997615814,0.2942865490913391,-0.1004880890250206,9.962676048278809,-0.023446720093488693,-0.04715988039970398,0.0005328800179995596
0.2566855277815437,Acceleration_X,0,3.2698308288969398,1500,12.267999649047852,3.2527236938476562,3.2527236938476562,1500,0.2562704031959647,0.0,0.00800000037997961,0.6818834543228149,0.07656235247850418,8.649152755737305,-0.02051588147878647,0.00452948035672307,-0.0026644000317901373
0.2566855277815437,Acceleration_X,0,3.233060510054418,1500,12.267999649047852,3.2782821655273438,3.2782821655273438,1500,0.2652029025698866,0.0,0.0430000014603138,0.17705044150352478,-1.086228370666504,8.943439483642578,-0.058083921670913696,0.023446720093488693,0.006661000195890665
0.2566855277815437,Acceleration_X,0,3.2118585685621617,1500,12.272000312805176,3.2810556888580322,3.2810556888580322,1500,0.26709625441543144,0.0,0.04100000113248825,-0.40434491634368896,-0.6292468309402466,9.374102592468262,0.04023244231939316,-0.028509080410003662,0.027976201847195625
0.2566855277815437,Acceleration_X,0,3.1818751050767484,1500,12.272000312805176,3.2674200534820557,3.2674200534820557,1500,0.268759354449104,0.0,-0.3089999854564667,0.6340319514274597,0.35649344325065613,8.560627937316895,-0.0010657600359991193,-0.0021315200719982386,0.014387760311365128
0.2566855277815437,Acceleration_X,0,3.1294028878573807,1500,12.269000053405762,3.2325406074523926,3.2325406074523926,1500,0.27425044018181255,0.0,-0.3240000009536743,0.17705044150352478,-0.14833955466747284,9.278400421142578,0.0010657600359991193,-0.012522680684924126,0.0213152002543211
0.2566855277815437,Acceleration_X,0,3.0737383208265627,1500,12.269000053405762,3.210388422012329,3.210388422012329,1500,0.27848527484262336,0.0,0.04600000008940697,-0.031103456392884254,0.13637669384479523,7.7758636474609375,-0.008792520500719547,0.033837880939245224,0.030640600249171257
0.2566855277815437,Acceleration_X,0,3.028565912894466,1500,12.267999649047852,3.1794567108154297,3.1794567108154297,1500,0.27838604867028116,0.0,0.052000001072883606,0.26796823740005493,-0.0693846344947815,9.493731498718262,0.0015986401122063398,0.0013322000158950686,0.010124720633029938
0.2566855277815437,Acceleration_X,0,2.9932616444030824,1500,12.267999649047852,3.1283397674560547,3.1283397674560547,1500,0.27559033495676366,0.0,-0.13300000131130219,0.46176669001579285,-0.6579577326774597,10.405302047729492,-0.0031972802244126797,0.007460320368409157,0.00452948035672307
0.2566855277815437,Acceleration_X,0,2.963828078405956,1500,12.246999740600586,3.071955919265747,3.071955919265747,1500,0.2724204736588587,0.0,-0.3089999854564667,0.22490191459655762,-0.5215809941291809,9.642070770263672,0.01198980025947094,-0.006927440408617258,0.015719961374998093
0.2566855277815437,Acceleration_X,0,2.9271192791265657,1500,12.246999740600586,3.0277304649353027,3.0277304649353027,1500,0.27217381431045823,0.0,-0.3790000081062317,0.7201645970344543,-0.2560053765773773,7.957699298858643,0.01625283993780613,-0.009858280420303345,-0.004263040143996477
0.2566855277815437,Acceleration_X,0,2.892178411860127,1500,12.256999969482422,2.992750883102417,2.992750883102417,1500,0.2721477119615584,0.0,-0.1550000011920929,0.36127859354019165,0.021533161401748657,9.197052955627441,0.006128120236098766,0.0015986401122063398,-0.0029308400116860867
0.2566855277815437,Acceleration_X,0,2.8587131416039813,1500,12.256999969482422,2.9621083736419678,2.9621083736419678,1500,0.2718667445945333,0.0,-0.04600000008940697,-0.2703607976436615,-0.277538537979126,9.209015846252441,0.0010657600359991193,0.05222224071621895,-0.0018650800921022892
0.2566855277815437,Acceleration_X,0,2.828863130852078,1500,12.26200008392334,2.925849437713623,2.925849437713623,1500,0.27093511892636174,0.0,-0.03200000151991844,0.35410088300704956,-0.02631830796599388,10.697196006774902,0.011723360046744347,-0.020249441266059875,0.0013322000158950686
0.3288930416036252,Acceleration_X,0,3.1534502980334427,1500,12.26200008392334,2.8917884826660156,2.8917884826660156,1500,0.2694462859494862,0.0,-0.06300000101327896,0.5646473169326782,-0.7536606788635254,11.257058143615723,-0.03676871955394745,-0.048492081463336945,-0.00452948035672307
0.3288930416036252,Acceleration_X,0,3.243936752573288,1500,12.25100040435791,2.856865167617798,2.856865167617798,1500,0.2662092574350585,0.0,-0.08500000089406967,0.9139630794525146,0.043066322803497314,9.206623077392578,-0.015453520230948925,-0.01971656084060669,-0.017851481214165688
0.3288930416036252,Acceleration_X,0,3.3991393641692436,1500,12.25100040435791,2.82793927192688,2.82793927192688,1500,0.2627620719300092,0.0,-0.24300000071525574,0.31103456020355225,0.26796823740005493,9.926787376403809,-0.059682562947273254,0.0037301601842045784,-0.0015986401122063398
0.3288930416036252,Acceleration_X,0,3.550925797343551,1500,12.253999710083008,3.152001142501831,3.152001142501831,1500,0.26157895941498516,0.0,-0.36399999260902405,0.5191884636878967,-0.5646473169326782,8.536702156066895,0.011723360046744347,-0.005861680023372173,0.016785720363259315
0.3288930416036252,Acceleration_X,0,3.6844799801669263,1500,12.253999710083008,3.242203950881958,3.242203950881958,1500,0.26507744451311777,0.0,-0.3440000116825104,0.3086419701576233,0.6531725525856018,9.285577774047852,0.0463605597615242,-0.0037301601842045784,0.007193880155682564
0.3288930416036252,Acceleration_X,0,3.8011061336739402,1500,12.279000282287598,3.398895502090454,3.398895502090454,1500,0.2712089712141884,0.0,-0.08100000023841858,0.38041919469833374,0.18662072718143463,11.051297187805176,-0.0173186007887125,-0.016519280150532722,-0.009858280420303345
0.3288930416036252,Acceleration_X,0,3.9103083798934475,1500,12.279000282287598,3.5489721298217773,3.5489721298217773,1500,0.276482109918155,0.0,0.08100000023841858,0.4713369905948639,-0.011962867341935635,9.570294380187988,0.01891724020242691,0.009858280420303345,-0.0010657600359991193
0.3288930416036252,Acceleration_X,0,3.995371352067829,1500,12.255999565124512,3.6836087703704834,3.6836087703704834,1500,0.28412090487210484,0.0,-0.21199999749660492,0.6531725525856018,-0.17705044150352478,8.596516609191895,-0.007193880155682564,0.026111120358109474,0.0021315200719982386
0.3288930416036252,Acceleration_X,0,4.054342279879144,1500,12.255999565124512,3.7993597984313965,3.7993597984313965,1500,0.29399294715269514,0.0,-0.22300000488758087,1.1651833057403564,-1.2848119735717773,9.331036567687988,0.026111120358109474,0.022114520892500877,-0.00905896071344614
0.3288930416036252,Acceleration_X,0,4.069760929920555,1500,12.265000343322754,3.90946888923645,3.90946888923645,1500,0.3086245556634886,0.0,-0.12700000405311584,1.366159439086914,-1.0288065671920776,10.089482307434082,0.03090704046189785,0.039966002106666565,0.007193880155682564
0.3288930416036252,Acceleration_X,0,4.084773044608817,1500,12.265000343322754,3.994642496109009,3.994642496109009,1500,0.31735133708697094,0.0,-0.0430000014603138,0.8039047122001648,-0.6603502631187439,9.591827392578125,0.03410432115197182,0.009591840207576752,-0.004795920103788376
0.3288930416036252,Acceleration_X,0,4.0682988597322165,1500,12.26099967956543,4.052941799163818,4.052941799163818,1500,0.3275415140683098,0.0,-0.3310000002384186,0.6507799625396729,0.8493635654449463,10.345487594604492,0.0037301601842045784,0.008259640075266361,-0.0029308400116860867
0.3288930416036252,Acceleration_X,0,4.0098214993426256,1500,12.26099967956543,4.068267822265625,4.068267822265625,1500,0.3419097696020385,0.0,-0.10100000351667404,-0.04785146936774254,0.4474112391471863,9.869365692138672,0.005861680023372173,0.032239239662885666,0.007193880155682564
0.3288930416036252,Acceleration_X,0,3.95433014696663,1500,12.258999824523926,4.08292818069458,4.08292818069458,1500,0.34967991825167427,0.0,0.04600000008940697,0.22729448974132538,1.6939420700073242,10.144511222839355,-0.024246040731668472,-0.07087304443120956,0.00452948035672307
0.3288930416036252,Acceleration_X,0,3.9118700985861357,1500,12.258999824523926,4.067604064941406,4.067604064941406,1500,0.3500701524183218,0.0,-0.10899999737739563,0.28471624851226807,-0.7082017660140991,11.491530418395996,-0.03543652221560478,0.007460320368409157,0.009325399994850159
0.3288930416036252,Acceleration_X,0,3.867965839993701,1500,12.265999794006348,4.008596897125244,4.008596897125244,1500,0.34936076815946226,0.0,-0.37700000405311584,0.12202125042676926,-0.8780744671821594,9.886114120483398,-0.052755121141672134,-0.0013322000158950686,0.02504536136984825
0.3288930416036252,Acceleration_X,0,3.8047970851484356,1500,12.265999794006348,3.9523775577545166,3.9523775577545166,1500,0.35277396483208023,0.0,-0.3050000071525574,0.46655184030532837,0.6699205636978149,8.921906471252441,0.021848080679774284,-0.018650799989700317,0.01065760012716055
0.3288930416036252,Acceleration_X,0,3.736924271975516,1500,12.26099967956543,3.9098966121673584,3.9098966121673584,1500,0.3562559848774921,0.0,0.009999999776482582,0.021533161401748657,0.0813474953174591,10.163652420043945,-0.0031972802244126797,0.0077267601154744625,0.03090704046189785
0.3288930416036252,Acceleration_X,0,3.68851331071305,1500,12.26099967956543,3.8656206130981445,3.8656206130981445,1500,0.3541173185431928,0.0,0.04600000008940697,0.11723610013723373,1.3518040180206299,11.46999740600586,-0.02051588147878647,0.04742632061243057,0.023713160306215286
0.3288930416036252,Acceleration_X,0,3.6517344059024186,1500,12.253999710083008,3.8021438121795654,3.8021438121795654,1500,0.34964319597688204,0.0,-0.3160000145435333,-0.265575647354126,0.3206048607826233,9.051105499267578,0.015986399725079536,0.026111120358109474,0.012256240472197533
0.3288930416036252,Acceleration_X,0,3.5993120196839596,1500,12.253999710083008,3.7340660095214844,3.7340660095214844,1500,0.3500901957161904,0.0,-0.32199999690055847,-0.6483874320983887,0.10527323186397552,11.371901512145996,-0.019450120627880096,0.014121320098638535,0.010391159914433956
0.3288930416036252,Acceleration_X,0,3.5687053573897822,1500,12.265999794006348,3.6866142749786377,3.6866142749786377,1500,0.34664499006900307,0.0,0.05400000140070915,0.7775864005088806,0.43544837832450867,8.962580680847168,0.04129820317029953,-0.015719961374998093,0.007460320368409157
0.3288930416036252,Acceleration_X,0,3.547270236811899,1500,12.265999794006348,3.6508383750915527,3.6508383750915527,1500,0.3422570865503098,0.0,-0.2669999897480011,0.3708488941192627,1.1771461963653564,11.33840560913086,-0.01332200039178133,-0.02477892115712166,-0.006661000195890665
0.3288930416036252,Acceleration_X,0,3.5175031017206666,1500,12.260000228881836,3.5979695320129395,3.5979695320129395,1500,0.34147247784452717,0.0,-0.17499999701976776,-0.18662072718143463,-0.5048329830169678,9.819121360778809,-0.0077267601154744625,0.04822564125061035,0.012522680684924126
0.3288930416036252,Acceleration_X,0,3.514955199119126,1500,12.260000228881836,3.567319631576538,3.567319631576538,1500,0.3360312224439915,0.0,-0.02800000086426735,0.16748014092445374,-0.6459948420524597,8.486457824707031,-0.0386338010430336,-0.06634356081485748,0.004263040143996477
0.3288930416036252,Acceleration_X,0,3.5072937207808406,1500,12.246000289916992,3.5462374687194824,3.5462374687194824,1500,0.3334021691880872,0.0,-0.24500000476837158,0.5191884636878967,-0.7584457993507385,7.510288238525391,-0.019450120627880096,-0.009858280420303345,-0.0026644000317901373
0.3288930416036252,Acceleration_X,0,3.5067766263703413,1500,12.246000289916992,3.515622615814209,3.515622615814209,1500,0.3309832697200533,0.0,-0.11999999731779099,0.1626949906349182,-1.3757297992706299,8.615656852722168,-0.039166681468486786,-0.0021315200719982386,0.023713160306215286
0.3288930416036252,Acceleration_X,0,3.5237591000657686,1500,12.25100040435791,3.513654947280884,3.513654947280884,1500,0.32611288192671767,0.0,-0.08299999684095383,0.21533161401748657,0.5957508087158203,11.283376693725586,0.11323700100183487,-0.10471092164516449,0.02664400078356266
0.3288930416036252,Acceleration_X,0,3.5262219208553467,1500,12.25100040435791,3.5068490505218506,3.5068490505218506,1500,0.32609140877844844,0.0,-0.3310000002384186,-0.08613264560699463,-0.3756340444087982,10.175615310668945,-0.036502283066511154,0.006128120236098766,0.0021315200719982386
0.3288930416036252,Acceleration_X,0,3.5535328279471377,1500,12.267999649047852,3.504899263381958,3.504899263381958,1500,0.321756260926916,0.0,0.10300000011920929,1.0407694578170776,0.4402335286140442,9.192267417907715,-0.0015986401122063398,0.0010657600359991193,-0.004263040143996477
0.3288930416036252,Acceleration_X,0,3.559926819821995,1500,12.267999649047852,3.5219383239746094,3.5219383239746094,1500,0.32303418830066877,0.0,-0.37299999594688416,1.497750997543335,-0.17226529121398926,10.591922760009766,-0.0031972802244126797,-0.02051588147878647,-0.0007993200561031699
0.3288930416036252,Acceleration_X,0,3.5945147706281535,1500,12.26099967956543,3.5250375270843506,3.5250375270843506,1500,0.31883357340108054,0.0,0.04600000008940697,1.6054167747497559,-0.6436022520065308,9.280792236328125,0.008792520500719547,0.02477892115712166,-0.010924040339887142
0.3288930416036252,Acceleration_X,0,3.6050955753865974,1500,12.26099967956543,3.552284002304077,3.552284002304077,1500,0.32062469501571317,0.0,-0.31299999356269836,0.31581971049308777,-0.43784093856811523,10.192362785339355,-0.01198980025947094,-0.017585041001439095,-0.0002664400089997798
0.3288930416036252,Acceleration_X,0,3.6408842638748173,1500,12.269000053405762,3.5580101013183594,3.5580101013183594,1500,0.3173734357263587,0.0,-0.009999999776482582,0.3971672058105469,0.15551728010177612,9.979424476623535,0.046094123274087906,0.0077267601154744625,0.0002664400089997798
0.3288930416036252,Acceleration_X,0,3.664522938657029,1500,12.269000053405762,3.593794584274292,3.593794584274292,1500,0.31730956824930906,0.0,-0.2590000033378601,1.0407694578170776,0.07416977733373642,9.244903564453125,0.005595240276306868,0.0010657600359991193,-0.012789120897650719
0.3288930416036252,Acceleration_X,0,3.6872047163588793,1500,12.265999794006348,3.603137493133545,3.603137493133545,1500,0.317997329737061,0.0,-0.13099999725818634,0.43544837832450867,-0.17226529121398926,7.4121928215026855,0.013854880817234516,0.07593540102243423,0.0010657600359991193
0.3288930416036252,Acceleration_X,0,3.720743510268089,1500,12.265999794006348,3.63891339302063,3.63891339302063,1500,0.3162508807361469,0.0,-0.017000000923871994,-0.550291895866394,-0.28710880875587463,10.477079391479492,-0.015453520230948925,-0.02664400078356266,0.006394560448825359
0.3288930416036252,Acceleration_X,0,3.7381222953595428,1500,12.253999710083008,3.6625843048095703,3.6625843048095703,1500,0.3182434590685211,0.0,-0.32199999690055847,0.46176669001579285,-0.4163077771663666,11.137429237365723,-0.03783448040485382,-0.009858280420303345,0.007993199862539768
0.3288930416036252,Acceleration_X,0,3.7665166923034663,1500,12.253999710083008,3.6864116191864014,3.6864116191864014,1500,0.31765813894408107,0.0,0.0430000014603138,0.7153794765472412,-0.9737774133682251,7.598813533782959,-0.05861680209636688,0.01811792142689228,0.006128120236098766
0.3288930416036252,Acceleration_X,0,3.779414651390594,1500,12.277000427246094,3.7189080715179443,3.7189080715179443,1500,0.3201112563044229,0.0,-0.3790000081062317,-0.36845633387565613,-0.277538537979126,7.694516181945801,0.0578174814581871,-0.0213152002543211,0.040765322744846344
0.3288930416036252,Acceleration_X,0,3.790006322224866,1500,12.277000427246094,3.7376646995544434,3.7376646995544434,1500,0.32240921022821445,0.0,0.02800000086426735,-0.6053211092948914,-0.17465786635875702,9.199444770812988,-0.03890024125576019,0.04822564125061035,-0.0029308400116860867
0.3288930416036252,Acceleration_X,0,3.8080814849790365,1500,12.253999710083008,3.7647011280059814,3.7647011280059814,1500,0.3220683660041437,0.0,-0.04800000041723251,0.09331036359071732,0.3947746157646179,8.443391799926758,0.013055560179054737,0.0015986401122063398,0.018650799989700317
0.3288930416036252,Acceleration_X,0,3.8028474982340685,1500,12.253999710083008,3.7783164978027344,3.7783164978027344,1500,0.32625721275646574,0.0,-0.2939999997615814,-0.04067374765872955,0.5718250870704651,8.582160949707031,-0.006394560448825359,0.009858280420303345,0.01811792142689228
0.3288930416036252,Acceleration_X,0,3.813057033644513,1500,12.253999710083008,3.7885284423828125,3.7885284423828125,1500,0.32606583115457605,0.0,0.03500000014901161,0.5215809941291809,-0.6483874320983887,9.701885223388672,0.008792520500719547,0.050357162952423096,-0.0005328800179995596
0.3288930416036252,Acceleration_X,0,3.8147622572220268,1500,12.253999710083008,3.8072495460510254,3.8072495460510254,1500,0.32699440350199116,0.0,-0.30000001192092896,0.6627428531646729,-0.550291895866394,8.740071296691895,-0.026910440996289253,0.005328800063580275,0.010924040339887142
0.3288930416036252,Acceleration_X,0,3.8037545802773884,1500,12.265999794006348,3.8007562160491943,3.8007562160491943,1500,0.33029798967678553,0.0,-0.20200000703334808,0.21772418916225433,-0.7177720665931702,10.575175285339355,0.048492081463336945,-0.006128120236098766,-0.0007993200561031699
0.32057648264132277,Acceleration_X,0,3.7700945125526513,1500,12.265999794006348,3.8126814365386963,3.8126814365386963,1500,0.32881429146441193,0.0,0.0,0.7201645970344543,-1.485788106918335,9.374102592468262,-0.01971656084060669,-0.014121320098638535,-0.015719961374998093
0.32057648264132277,Acceleration_X,0,3.7392843533156483,1500,12.258999824523926,3.813911199569702,3.813911199569702,1500,0.33247703350009455,0.0,-0.29600000381469727,-0.09331036359071732,-0.12680639326572418,8.665901184082031,0.01625283993780613,0.04183107987046242,0.0005328800179995596
0.32057648264132277,Acceleration_X,0,3.7119835696688637,1500,12.258999824523926,3.801992416381836,3.801992416381836,1500,0.333185277056906,0.0,0.0430000014603138,0.2966791093349457,-0.8469710350036621,8.357258796691895,-0.06048188358545303,-0.034637201577425,0.011456920765340328
0.32057648264132277,Acceleration_X,0,3.691191451789149,1500,12.27299976348877,3.768833637237549,3.768833637237549,1500,0.3317394215896179,0.0,-0.1860000044107437,0.18662072718143463,-1.1651833057403564,10.187578201293945,-0.04529480263590813,0.049291402101516724,-0.0029308400116860867
0.32057648264132277,Acceleration_X,0,3.648018011780571,1500,12.27299976348877,3.7381513118743896,3.7381513118743896,1500,0.3352241794761662,0.0,-0.3050000071525574,-0.14116182923316956,-0.35410088300704956,9.151593208312988,0.010391159914433956,-0.01891724020242691,0.03330500051379204
0.32057648264132277,Acceleration_X,0,3.627706258365671,1500,12.248000144958496,3.7101235389709473,3.7101235389709473,1500,0.3331925902677842,0.0,0.026000000536441803,0.33496028184890747,-0.019140588119626045,10.457939147949219,0.11883224546909332,-0.08073132485151291,0.025311801582574844
0.32057648264132277,Acceleration_X,0,3.5919671148555365,1500,12.248000144958496,3.6897099018096924,3.6897099018096924,1500,0.33437805958169536,0.0,-0.26100000739097595,0.06459948420524597,0.08852522075176239,9.706670761108398,-0.003996599931269884,0.029841281473636627,0.033038560301065445
0.32057648264132277,Acceleration_X,0,3.5586011862497893,1500,12.258999824523926,3.647052526473999,3.647052526473999,1500,0.3350383039219277,0.0,-0.024000000208616257,0.16030243039131165,-0.46655184030532837,10.862283706665039,0.0010657600359991193,0.0463605597615242,0.014387760311365128
0.32057648264132277,Acceleration_X,0,3.538751437190826,1500,12.258999824523926,3.6266207695007324,3.6266207695007324,1500,0.33253917838387403,0.0,-0.10899999737739563,0.2512202262878418,0.3517082929611206,9.070245742797852,0.020249441266059875,0.012789120897650719,0.01332200039178133
0.32057648264132277,Acceleration_X,0,3.5033963035514537,1500,12.26099967956543,3.5897483825683594,3.5897483825683594,1500,0.333861712090036,0.0,-0.2669999897480011,-0.22250933945178986,0.5239735841751099,9.048712730407715,0.02158164046704769,0.03596940264105797,0.011723360046744347
0.32057648264132277,Acceleration_X,0,3.491536143739391,1500,12.26099967956543,3.5573928356170654,3.5573928356170654,1500,0.3303654905914578,0.0,0.017000000923871994,-0.07177720218896866,0.6555651426315308,10.453153610229492,0.004795920103788376,0.03623584285378456,0.02051588147878647
0.32057648264132277,Acceleration_X,0,3.464764923436672,1500,12.267000198364258,3.536985158920288,3.536985158920288,1500,0.33076526691090696,0.0,-0.2919999957084656,0.22729448974132538,0.2560053765773773,10.304814338684082,0.020249441266059875,-0.0618140809237957,-0.010124720633029938
0.32057648264132277,Acceleration_X,0,3.4623722772336145,1500,12.267000198364258,3.5029101371765137,3.5029101371765137,1500,0.3265964603854642,0.0,0.029999999329447746,0.16508756577968597,-0.06220691278576851,9.555938720703125,0.004263040143996477,0.02744332142174244,0.0010657600359991193
0.32057648264132277,Acceleration_X,0,3.445198206937144,1500,12.260000228881836,3.490694522857666,3.490694522857666,1500,0.3266602084871285,0.0,-0.28299999237060547,-0.41391521692276,-0.13637669384479523,9.311896324157715,0.0010657600359991193,-0.022647401317954063,0.018650799989700317
0.32057648264132277,Acceleration_X,0,3.43796856512124,1500,12.260000228881836,3.4634499549865723,3.4634499549865723,1500,0.3253365894220989,0.0,-0.013000000268220901,0.4402335286140442,-0.29907169938087463,10.819217681884766,-0.04476192221045494,-0.05302156135439873,0.011456920765340328
0.32057648264132277,Acceleration_X,0,3.447725251249235,1500,12.265000343322754,3.4614555835723877,3.4614555835723877,1500,0.3208988042333,0.0,-0.07000000029802322,0.31581971049308777,-0.3253899812698364,9.429132461547852,-0.028509080410003662,0.007193880155682564,0.0077267601154744625
0.32057648264132277,Acceleration_X,0,3.4402923680245983,1500,12.265000343322754,3.44442081451416,3.44442081451416,1500,0.32154953501063555,0.0,-0.3659999966621399,0.16030243039131165,-0.22968704998493195,9.115705490112305,0.005328800063580275,-0.04582768306136131,0.025578241795301437
0.32057648264132277,Acceleration_X,0,3.458418572970292,1500,12.255000114440918,3.4365062713623047,3.4365062713623047,1500,0.31746816951716084,0.0,0.024000000208616257,0.7560532093048096,0.39955976605415344,11.27859115600586,0.07939912378787994,-0.0735374391078949,0.01465420052409172
0.32057648264132277,Acceleration_X,0,3.4601538355177928,1500,12.255000114440918,3.446718692779541,3.446718692779541,1500,0.31787949245446573,0.0,-0.29600000381469727,0.5096181631088257,0.02631830796599388,9.565508842468262,0.009858280420303345,-0.01705216057598591,0.0029308400116860867
0.32057648264132277,Acceleration_X,0,3.4671610086553613,1500,12.256999969482422,3.438769578933716,3.438769578933716,1500,0.3177532465811926,0.0,0.03200000151991844,-0.021533161401748657,-0.3253899812698364,10.065556526184082,-0.015187080949544907,0.02744332142174244,0.015986399725079536
0.25341600287522625,Acceleration_X,0,3.1635259154046635,1500,12.256999969482422,3.4574954509735107,3.4574954509735107,1500,0.31448951462538827,0.0,-0.08299999684095383,0.5861805081367493,-0.3828117549419403,7.964877128601074,-0.0005328800179995596,-0.0026644000317901373,0.01198980025947094
0.25341600287522625,Acceleration_X,0,3.069942056305859,1500,12.253999710083008,3.458350896835327,3.458350896835327,1500,0.31599765344022307,0.0,-0.3089999854564667,-0.4474112391471863,0.46176669001579285,9.165948867797852,0.019983001053333282,0.022114520892500877,0.0018650800921022892
0.25341600287522625,Acceleration_X,0,2.951392270118445,1500,12.253999710083008,3.465158700942993,3.465158700942993,1500,0.3116682979802276,0.0,0.039000000804662704,0.26796823740005493,-0.6148914098739624,8.0294771194458,-0.005062360316514969,0.0026644000317901373,0.014121320098638535
0.25341600287522625,Acceleration_X,0,2.833811842702983,1500,12.265999794006348,3.1619021892547607,3.1619021892547607,1500,0.30815093354998213,0.0,-0.3199999928474426,-0.1196286752820015,-0.44262608885765076,8.385970115661621,0.026111120358109474,-0.008526080287992954,0.003463720204308629
0.25341600287522625,Acceleration_X,0,2.7221108624561707,1500,12.265999794006348,3.0682036876678467,3.0682036876678467,1500,0.305217865484195,0.0,-0.11400000005960464,-0.016748014837503433,-0.09091779589653015,9.177911758422852,-0.017585041001439095,-0.020249441266059875,-0.011190480552613735
0.25341600287522625,Acceleration_X,0,2.624263962500594,1500,12.258999824523926,2.9506733417510986,2.9506733417510986,1500,0.30088127398279313,0.0,0.039000000804662704,-0.02392573468387127,0.5766102075576782,9.058282852172852,0.022647401317954063,0.027976201847195625,0.0010657600359991193
0.25341600287522625,Acceleration_X,0,2.5425359633759963,1500,12.258999824523926,2.8314883708953857,2.8314883708953857,1500,0.29500064332620274,0.0,0.024000000208616257,-0.28471624851226807,0.055029191076755524,10.058379173278809,-0.02477892115712166,-0.007460320368409157,0.014920640736818314
0.25341600287522625,Acceleration_X,0,2.4839696477594853,1500,12.265999794006348,2.7206668853759766,2.7206668853759766,1500,0.2867979754639424,0.0,0.013000000268220901,0.09091779589653015,0.19140587747097015,9.259259223937988,-0.034637201577425,-0.029574841260910034,0.017585041001439095
0.25341600287522625,Acceleration_X,0,2.452301239972566,1500,12.265999794006348,2.623561143875122,2.623561143875122,1500,0.2764950179487565,0.0,0.026000000536441803,0.33496028184890747,0.2512202262878418,8.998469352722168,-0.019183680415153503,0.03676871955394745,0.013055560179054737
0.25341600287522625,Acceleration_X,0.5404350854820571,2.480784957907447,1500,12.25100040435791,2.5403811931610107,2.5403811931610107,1500,0.2582153627264044,0.0,0.0,0.770122135466989,-0.033496029675006866,9.658819198608398,-0.037301599979400635,-0.018384359776973724,0.006394560448825359
0.25341600287522625,Acceleration_X,0.5404350854820571,2.5247954951172917,1500,12.25100040435791,2.4825289249420166,2.4825289249420166,1500,0.24389941894394163,0.0,-0.33799999952316284,0.5117242042339406,0.29907169938087463,9.651641845703125,0.04476192221045494,-0.05568596348166466,0.022913841530680656
0.25341600287522625,Acceleration_X,0.5404350854820571,2.557533381660317,1500,12.256999969482422,2.4514000415802,2.4514000415802,1500,0.2392035791446468,0.0,-0.19099999964237213,0.7485889740652404,0.8756818771362305,9.130060195922852,0.02504536136984825,-0.014920640736818314,0.00905896071344614
0.25341600287522625,Acceleration_X,0.5404350854820571,2.6080594571997144,1500,12.256999969482422,2.4786376953125,2.4786376953125,1500,0.23460264150604632,0.0,0.026000000536441803,0.40405839163726187,0.28710880875587463,8.694612503051758,-0.009325399994850159,-0.003463720204308629,-0.003463720204308629
0.25341600287522625,Acceleration_X,0.5404350854820571,2.6893848890991388,1500,12.253000259399414,2.523777723312378,2.523777723312378,1500,0.22579480956224532,0.0,0.07400000095367432,1.3419472076362928,-0.4019523561000824,8.716145515441895,-0.013055560179054737,-0.006128120236098766,0.014920640736818314
0.25341600287522625,Acceleration_X,0.5404350854820571,2.7351470769535084,1500,12.253000259399414,2.5561118125915527,2.5561118125915527,1500,0.22772007886544426,0.0,-0.3179999887943268,0.7270558126634917,-0.43544837832450867,8.570198059082031,-0.013055560179054737,0.01465420052409172,0.008259640075266361
0.25341600287522625,Acceleration_X,0.5404350854820571,2.78657173405405,1500,12.248000144958496,2.6078033447265625,2.6078033447265625,1500,0.22936220894898324,0.0,-0.013000000268220901,0.6169974379605613,0.05981433764100075,9.553545951843262,-0.003463720204308629,0.009325399994850159,-0.004263040143996477
0.25341600287522625,Acceleration_X,0.5404350854820571,2.8461960005496145,1500,12.248000144958496,2.687755584716797,2.687755584716797,1500,0.22850069822569688,0.0,0.03500000014901161,0.8586473562187514,-0.21533161401748657,9.788018226623535,0.021848080679774284,0.003463720204308629,0.0037301601842045784
0.25341600287522625,Acceleration_X,0.5404350854820571,2.912018270570893,1500,12.253000259399414,2.7330996990203857,2.7330996990203857,1500,0.22634601067158086,0.0,-0.1860000044107437,0.6361380242175422,-0.4067375063896179,8.809455871582031,-0.005861680023372173,0.026910440996289253,-0.007993199862539768
0.25341600287522625,Acceleration_X,0.5404350854820571,2.9601565841990136,1500,12.253000259399414,2.784153938293457,2.784153938293457,1500,0.22861502440101444,0.0,-0.32899999618530273,0.8107958831257186,-0.019140588119626045,8.905158996582031,0.009325399994850159,0.03783448040485382,0.00905896071344614
0.25341600287522625,Acceleration_X,0.5404350854820571,2.994575070512807,1500,12.270000457763672,2.8442542552948,2.8442542552948,1500,0.2334006378039966,0.0,-0.1550000011920929,1.0141646363205274,-0.7058091759681702,9.929180145263672,0.016785720363259315,0.0005328800179995596,0.0029308400116860867
0.25341600287522625,Acceleration_X,0.5404350854820571,3.019075880599253,1500,12.270000457763672,2.9107167720794678,2.9107167720794678,1500,0.23842714913816987,0.0,-0.004000000189989805,0.937602291292604,-0.22490191459655762,10.328740119934082,0.005595240276306868,-0.04049888253211975,-0.004263040143996477
0.25341600287522625,Acceleration_X,0.5404350854820571,3.032407478303218,1500,12.265000343322754,2.9589312076568604,2.9589312076568604,1500,0.24345882350960668,0.0,0.03500000014901161,0.394488105959352,-0.275145947933197,9.998564720153809,-0.003996599931269884,0.032239239662885666,-0.0026644000317901373
0.25341600287522625,Acceleration_X,0.5404350854820571,3.0363032417111326,1500,12.265000343322754,2.9930007457733154,2.9930007457733154,1500,0.24810526945718497,0.0,0.03200000151991844,1.1242230035728773,-0.2129390388727188,9.601397514343262,0.015986399725079536,0.0015986401122063398,0.009591840207576752
0.25341600287522625,Acceleration_X,0.5404350854820571,3.0297727998288684,1500,12.253000259399414,3.017301321029663,3.017301321029663,1500,0.252681126838656,0.0,0.026000000536441803,0.8275438942379317,-0.41152265667915344,9.606183052062988,-0.034903641790151596,-0.04582768306136131,0.014121320098638535
0.25341600287522625,Acceleration_X,0.5404350854820571,3.0164067581151315,1500,12.253000259399414,3.0309157371520996,3.0309157371520996,1500,0.25653230581557335,0.0,0.01899999938905239,0.44951728958552695,0.5263661742210388,10.309598922729492,-0.03676871955394745,-0.02158164046704769,0.02051588147878647
0.25341600287522625,Acceleration_X,0.5404350854820571,2.993097214253761,1500,12.270000457763672,3.035120964050293,3.035120964050293,1500,0.2605294327292924,0.0,0.009999999776482582,0.107379267401155,0.43066322803497314,9.058282852172852,-0.04955784231424332,0.05648528039455414,0.007993199862539768
0.25341600287522625,Acceleration_X,0.5404350854820571,2.9640376014815586,1500,12.270000457763672,3.0283043384552,3.0283043384552,1500,0.2638790256373815,0.0,0.0,0.4136286922163329,-0.16748014092445374,9.524834632873535,0.01065760012716055,-0.04582768306136131,0.020249441266059875
0.25341600287522625,Acceleration_X,0.5404350854820571,2.928714382443391,1500,12.26200008392334,3.0144083499908447,3.0144083499908447,1500,0.26685696498409484,0.0,0.029999999329447746,1.3419472076362928,-0.14355440437793732,8.663508415222168,0.04023244231939316,-0.03197279945015907,0.016519280150532722
0.25341600287522625,Acceleration_X,0.5404350854820571,2.8915315425778756,1500,12.26200008392334,2.9922685623168945,2.9922685623168945,1500,0.26878146160186683,0.0,0.04800000041723251,1.1505413152641615,-0.1004880890250206,9.699493408203125,0.009858280420303345,-0.02158164046704769,0.008526080287992954
0.25341600287522625,Acceleration_X,0.5404350854820571,2.852342656422621,1500,12.27400016784668,2.9628074169158936,2.9628074169158936,1500,0.27005290108333807,0.0,0.07000000029802322,1.09311957139438,-0.0813474953174591,8.529524803161621,0.007993199862539768,0.0002664400089997798,0.03250567987561226
0.29499202134791386,Acceleration_X,0.5404350854820571,3.0160444591208404,1500,12.27400016784668,2.9270081520080566,2.9270081520080566,1500,0.27036656914886986,0.0,-0.009999999776482582,0.41123611707156515,0.057421762496232986,8.462532043457031,-0.01811792142689228,0.06261340528726578,0.02477892115712166
0.29499202134791386,Acceleration_X,0.5404350854820571,3.0407937284066504,1500,12.256999969482422,2.8906092643737793,2.8906092643737793,1500,0.26988972097948044,0.0,-0.01899999938905239,0.9591354526943526,-0.6053211092948914,9.876543045043945,-0.006394560448825359,0.019183680415153503,0.0
0.29499202134791386,Acceleration_X,0.5404350854820571,3.0986884373682586,1500,12.256999969482422,2.851454734802246,2.851454734802246,1500,0.26951804946392727,0.0,-0.026000000536441803,0.9328171410030685,0.21533161401748657,9.974638938903809,0.012789120897650719,0.027176881209015846,0.004263040143996477
0.29499202134791386,Acceleration_X,0.5404350854820571,3.1553954493670284,1500,12.253999710083008,3.015845537185669,3.015845537185669,1500,0.2695747247402311,0.0,-0.0430000014603138,1.1912150480217298,0.22250933945178986,8.371614456176758,0.006394560448825359,-0.011456920765340328,0.01065760012716055
0.29499202134791386,Acceleration_X,0.5404350854820571,3.214977700418415,1500,12.253999710083008,3.039672613143921,3.039672613143921,1500,0.2690907780635632,0.0,-0.061000000685453415,0.5260796448579989,-0.4713369905948639,8.728108406066895,-0.009591840207576752,0.04023244231939316,0.013055560179054737
0.29499202134791386,Acceleration_X,0.5404350854820571,3.278297818322926,1500,12.267999649047852,3.097669839859009,3.097669839859009,1500,0.26797519052015245,0.0,-0.164000004529953,1.0596235491699537,-0.6818834543228149,9.840654373168945,-0.0013322000158950686,-0.027176881209015846,-0.0010657600359991193
0.29499202134791386,Acceleration_X,0.5404350854820571,3.344176021632608,1500,12.267999649047852,3.153898000717163,3.153898000717163,1500,0.26674459543790613,0.0,-0.25600001215934753,0.6744192041820846,-0.045458897948265076,9.407599449157715,-0.01332200039178133,0.047692760825157166,-0.014387760311365128
0.29499202134791386,Acceleration_X,0.5404350854820571,3.409681264353576,1500,12.265000343322754,3.2127487659454346,3.2127487659454346,1500,0.266137614908604,0.0,-0.3310000002384186,1.028520087189134,-0.275145947933197,8.814240455627441,0.010124720633029938,0.003996599931269884,0.008259640075266361
0.29499202134791386,Acceleration_X,0.5404350854820571,3.4667724833115074,1500,12.265000343322754,3.2774808406829834,3.2774808406829834,1500,0.2676495342970025,0.0,-0.3199999928474426,1.222318539804872,-0.3828117549419403,9.113312721252441,-0.027976201847195625,-0.05515308305621147,0.007460320368409157
0.29499202134791386,Acceleration_X,0.5404350854820571,3.5110230468244974,1500,12.26099967956543,3.342825174331665,3.342825174331665,1500,0.2714547437692037,0.0,-0.125,0.8203661837047896,0.478514701128006,10.472293853759766,-0.01625283993780613,-0.025578241795301437,0.006128120236098766
0.29499202134791386,Acceleration_X,0.5404350854820571,3.541300304770966,1500,12.26099967956543,3.407536029815674,3.407536029815674,1500,0.276767832129552,0.0,0.009999999776482582,0.119342158026155,-0.13398411870002747,8.565413475036621,-0.04875852167606354,0.0655442401766777,0.010124720633029938
0.29499202134791386,Acceleration_X,0.5404350854820571,3.5774330329389588,1500,12.269000053405762,3.4642884731292725,3.4642884731292725,1500,0.2786458468155628,0.0,0.014999999664723873,1.2582071520752272,0.701024055480957,9.335822105407715,0.08792520314455032,-0.08153064548969269,0.024246040731668472
0.29499202134791386,Acceleration_X,0.5404350854820571,3.5835892009939623,1500,12.269000053405762,3.5102972984313965,3.5102972984313965,1500,0.28526831128817237,0.0,-0.3089999854564667,0.882573107666429,0.3014642596244812,9.895684242248535,0.0029308400116860867,-0.0021315200719982386,-0.0015986401122063398
0.29499202134791386,Acceleration_X,0.5404350854820571,3.5920569604180663,1500,12.251999855041504,3.539466619491577,3.539466619491577,1500,0.28912474676144784,0.0,0.09399999678134918,1.676907549089845,-1.3063451051712036,9.555938720703125,-0.00905896071344614,-0.0005328800179995596,0.01198980025947094
0.29499202134791386,Acceleration_X,0.5404350854820571,3.5828093087458543,1500,12.251999855041504,3.5752015113830566,3.5752015113830566,1500,0.29439000651623726,0.0,-0.2980000078678131,0.23657826561396933,0.7034165859222412,9.421954154968262,-0.006128120236098766,0.05675172060728073,0.01811792142689228
0.29499202134791386,Acceleration_X,0.5404350854820571,3.5605956353955426,1500,12.255999565124512,3.5814754962921143,3.5814754962921143,1500,0.30011735891606295,0.0,-0.09799999743700027,1.1792522170013746,-0.08374007046222687,9.316680908203125,-0.003996599931269884,0.024512480944395065,-0.0077267601154744625
0.29499202134791386,Acceleration_X,0.5404350854820571,3.541073110527629,1500,12.255999565124512,3.591688632965088,3.591688632965088,1500,0.302709644710022,0.0,-0.13099999725818634,1.0237349368995985,-0.043066322803497314,9.276007652282715,0.0021315200719982386,0.015187080949544907,0.0037301601842045784
0.29499202134791386,Acceleration_X,0.5404350854820571,3.4973290488664706,1500,12.265999794006348,3.5809903144836426,3.5809903144836426,1500,0.3085782217406613,0.0,-0.18799999356269836,1.09311957139438,0.4521963894367218,8.589339256286621,0.017851481214165688,0.029574841260910034,0.029041960835456848
0.29499202134791386,Acceleration_X,0,3.482488167271102,1500,12.265999794006348,3.5588436126708984,3.5588436126708984,1500,0.3063050099357552,0.0,-0.029999999329447746,-0.12202125042676926,-0.4450186789035797,9.577471733093262,0.002397960051894188,-0.010924040339887142,0.013588440604507923
0.29499202134791386,Acceleration_X,0,3.4355383122345557,1500,12.255999565124512,3.5406219959259033,3.5406219959259033,1500,0.31035493220524585,0.0,-0.2759999930858612,0.26796823740005493,-0.9283185005187988,7.629916667938232,0.00905896071344614,0.056218840181827545,0.0007993200561031699
0.29499202134791386,Acceleration_X,0,3.4170267970746475,1500,12.255999565124512,3.496364116668701,3.496364116668701,1500,0.3077154913710663,0.0,0.03700000047683716,0.20336875319480896,0.05981433764100075,10.108623504638672,0.036502283066511154,-0.005328800063580275,0.008259640075266361
0.29499202134791386,Acceleration_X,0,3.376948588911683,1500,12.267999649047852,3.4810450077056885,3.4810450077056885,1500,0.309642894553081,0.0,-0.3240000009536743,0.5191884636878967,-0.7153794765472412,9.551153182983398,-0.06607712060213089,0.003463720204308629,0.021848080679774284
0.29499202134791386,Acceleration_X,0,3.349467305662959,1500,12.267999649047852,3.433336019515991,3.433336019515991,1500,0.3088323497551074,0.0,0.0430000014603138,0.8110824227333069,-0.17705044150352478,10.285673141479492,-0.02051588147878647,0.016519280150532722,0.013055560179054737
0.29499202134791386,Acceleration_X,0,3.3334066026020923,1500,12.267000198364258,3.4160189628601074,3.4160189628601074,1500,0.30558435004876494,0.0,-0.25200000405311584,-0.1004880890250206,-0.29189395904541016,9.323859214782715,0.04742632061243057,-0.07460319995880127,0.027709761634469032
0.29499202134791386,Acceleration_X,0,3.2970899755054943,1500,12.267000198364258,3.375128746032715,3.375128746032715,1500,0.30762345556700377,0.0,-0.25200000405311584,0.6077136397361755,0.23447220027446747,10.178008079528809,0.050357162952423096,-0.045028362423181534,0.01332200039178133
0.29499202134791386,Acceleration_X,0,3.285488581550802,1500,12.246999740600586,3.347513198852539,3.347513198852539,1500,0.30449409907441977,0.0,0.07599999755620956,0.3325677216053009,0.677098274230957,9.441095352172852,0.008526080287992954,-0.013854880817234516,-0.014387760311365128
0.29499202134791386,Acceleration_X,0,3.271627442985361,1500,12.246999740600586,3.332204580307007,3.332204580307007,1500,0.3024240222753244,0.0,-0.3400000035762787,0.31581971049308777,-0.05981433764100075,8.802277565002441,-0.036502283066511154,0.03783448040485382,0.01065760012716055
0.29499202134791386,Acceleration_X,0,3.24812996534001,1500,12.263999938964844,3.295949935913086,3.295949935913086,1500,0.3034812019007845,0.0,-0.21899999678134918,-0.2560053765773773,-0.14594697952270508,9.811944007873535,-0.01198980025947094,-0.0026644000317901373,-0.011190480552613735
0.29499202134791386,Acceleration_X,0,3.2410016469788303,1500,12.263999938964844,3.284026622772217,3.284026622772217,1500,0.30118694809124336,0.0,0.07400000095367432,0.0693846344947815,0.4091300666332245,9.335822105407715,0.013854880817234516,0.0005328800179995596,-0.0013322000158950686
0.29499202134791386,Acceleration_X,0,3.2435888710855636,1500,12.241000175476074,3.269367218017578,3.269367218017578,1500,0.29740156336578544,0.0,-0.24799999594688416,0.5478993058204651,-0.1507321298122406,9.642070770263672,0.006927440408617258,-0.011723360046744347,0.010124720633029938
0.29499202134791386,Acceleration_X,0,3.2330606399508874,1500,12.241000175476074,3.247265338897705,3.247265338897705,1500,0.29783031462035936,0.0,-0.3269999921321869,0.05263661593198776,0.4904775619506836,9.261651992797852,0.02664400078356266,0.01811792142689228,0.006128120236098766
0.29499202134791386,Acceleration_X,0,3.2276005720585945,1500,12.246000289916992,3.2400875091552734,3.2400875091552734,1500,0.2977094496835487,0.0,0.0430000014603138,0.30385681986808777,0.32299742102622986,10.235429763793945,0.01971656084060669,-0.05142292007803917,-0.005328800063580275
0.29838902493366104,Acceleration_X,0,3.244524372449,1500,12.246000289916992,3.241788387298584,3.241788387298584,1500,0.2963363161763068,0.0,0.061000000685453415,0.5215809941291809,-0.8661116361618042,8.519954681396484,0.02051588147878647,0.028775520622730255,-0.003996599931269884
0.29838902493366104,Acceleration_X,0,3.2615409246309697,1500,12.256999969482422,3.232783794403076,3.232783794403076,1500,0.2929934962502968,0.0,-0.13300000131130219,-0.138769268989563,-0.10527323186397552,8.689826965332031,0.0007993200561031699,0.002397960051894188,0.013055560179054737
0.29838902493366104,Acceleration_X,0,3.289207688642667,1500,12.256999969482422,3.2259743213653564,3.2259743213653564,1500,0.28924111861884205,0.0,-0.3400000035762787,0.12202125042676926,0.31581971049308777,9.113312721252441,-0.03357144072651863,-0.034637201577425,0.013588440604507923
0.29838902493366104,Acceleration_X,0,3.299971085281855,1500,12.258000373840332,3.243262529373169,3.243262529373169,1500,0.29064740032508923,0.0,-0.2759999930858612,1.098191261291504,-0.1626949906349182,8.749641418457031,-0.02744332142174244,0.030374161899089813,0.013854880817234516
0.29838902493366104,Acceleration_X,0,3.3123763575765115,1500,12.258000373840332,3.2602875232696533,3.2602875232696533,1500,0.29191030953806113,0.0,0.01899999938905239,-0.1004880890250206,-0.3660637438297272,8.725715637207031,-0.024246040731668472,0.005328800063580275,0.01465420052409172
0.29838902493366104,Acceleration_X,0,3.332075175706938,1500,12.260000228881836,3.2880640029907227,3.2880640029907227,1500,0.2910645952893738,0.0,0.05400000140070915,0.4019523561000824,0.8421858549118042,10.268925666809082,0.05142292007803917,-0.05568596348166466,0.011723360046744347
0.29838902493366104,Acceleration_X,0,3.3589055447031453,1500,12.260000228881836,3.298280715942383,3.298280715942383,1500,0.2887916609181257,0.0,-0.1860000044107437,0.2631830871105194,0.0693846344947815,8.874054908752441,0.0013322000158950686,-0.00452948035672307,0.01065760012716055
0.29838902493366104,Acceleration_X,0,3.368415011491217,1500,12.269000053405762,3.3109261989593506,3.3109261989593506,1500,0.2909075048561317,0.0,-0.2919999957084656,0.7416977882385254,-0.27993109822273254,9.309503555297852,-0.010391159914433956,0.011456920765340328,0.027709761634469032
0.29838902493366104,Acceleration_X,0,3.3751626854591636,1500,12.269000053405762,3.331374168395996,3.331374168395996,1500,0.29333553107087845,0.0,0.05000000074505806,0.08374007046222687,0.028710881248116493,8.263948440551758,-0.013854880817234516,0.03596940264105797,0.02824264019727707
0.29838902493366104,Acceleration_X,0,3.394418307465373,1500,12.26300048828125,3.3569962978363037,3.3569962978363037,1500,0.29210978549910716,0.0,0.05900000035762787,0.12680639326572418,0.20576132833957672,9.357355117797852,-0.006128120236098766,0.020249441266059875,0.010924040339887142
0.29838902493366104,Acceleration_X,0,3.404933058378692,1500,12.26300048828125,3.367215394973755,3.367215394973755,1500,0.29265321222768254,0.0,-0.3440000116825104,-0.10288066416978836,-0.05981433764100075,9.876543045043945,0.020249441266059875,0.05142292007803917,-0.0015986401122063398
0.29838902493366104,Acceleration_X,0,3.4050421709971856,1500,12.248000144958496,3.3733034133911133,3.3733034133911133,1500,0.2953806405154293,0.0,-0.15800000727176666,0.4163077771663666,0.40434491634368896,8.964972496032715,0.027176881209015846,0.024512480944395065,0.011190480552613735
0.29838902493366104,Acceleration_X,0,3.421013840646601,1500,12.248000144958496,3.39371657371521,3.39371657371521,1500,0.29393449835442526,0.0,0.07000000029802322,0.3899894952774048,-0.4282706677913666,7.998373031616211,-0.008259640075266361,0.029841281473636627,-0.006128120236098766
0.29838902493366104,Acceleration_X,0,3.4337953856900563,1500,12.244999885559082,3.4030895233154297,3.4030895233154297,1500,0.29312749004335054,0.0,-0.32199999690055847,0.6196765303611755,0.2703607976436615,9.299933433532715,-0.0013322000158950686,-0.0005328800179995596,-0.011190480552613735
0.29838902493366104,Acceleration_X,0,3.4327035422361347,1500,12.244999885559082,3.4047904014587402,3.4047904014587402,1500,0.2956603484522224,0.0,-0.2669999897480011,-0.37324145436286926,0.2823236584663391,8.773567199707031,0.02930840104818344,-0.010124720633029938,0.005328800063580275
0.29838902493366104,Acceleration_X,0,3.446627293766482,1500,12.26300048828125,3.4200146198272705,3.4200146198272705,1500,0.2944715104950938,0.0,0.07400000095367432,-0.18662072718143463,0.2512202262878418,9.206623077392578,-0.05142292007803917,-0.02397960051894188,0.0031972802244126797
0.29838902493366104,Acceleration_X,0,3.4580038414917023,1500,12.26300048828125,3.431936740875244,3.431936740875244,1500,0.2937490225829992,0.0,-0.30000001192092896,0.3636711835861206,0.35649344325065613,9.811944007873535,-0.0618140809237957,-0.01811792142689228,0.023446720093488693
0.29838902493366104,Acceleration_X,0,3.455121950462187,1500,12.26200008392334,3.431656837463379,3.431656837463379,1500,0.29637637982306997,0.0,-0.34200000762939453,0.05981433764100075,-0.24164992570877075,8.653938293457031,-0.014920640736818314,-0.010391159914433956,0.020782319828867912
0.29838902493366104,Acceleration_X,0,3.4639702627782314,1500,12.26200008392334,3.4452812671661377,3.4452812671661377,1500,0.29591954173816687,0.0,0.06300000101327896,0.6292468309402466,-0.265575647354126,11.51067066192627,0.08552724123001099,-0.10684244334697723,0.026377560570836067
0.29838902493366104,Acceleration_X,0,3.461917428673977,1500,12.256999969482422,3.4574954509735107,3.4574954509735107,1500,0.2974125340488472,0.0,-0.3109999895095825,0.701024055480957,-0.13637669384479523,8.905158996582031,-0.0021315200719982386,0.0010657600359991193,0.016785720363259315
0.29838902493366104,Acceleration_X,0,3.4510618679324994,1500,12.256999969482422,3.4540905952453613,3.4540905952453613,1500,0.3003499947845312,0.0,-0.05400000140070915,0.6842760443687439,0.37324145436286926,9.862188339233398,0.016785720363259315,-0.0010657600359991193,0.027176881209015846
0.29838902493366104,Acceleration_X,0,3.45192780815169,1500,12.272000312805176,3.4617269039154053,3.4617269039154053,1500,0.29974594968602564,0.0,0.05400000140070915,-0.07177720218896866,0.4904775619506836,7.562924861907959,-0.009858280420303345,0.006661000195890665,0.027976201847195625
0.29838902493366104,Acceleration_X,0,3.435843808956726,1500,12.272000312805176,3.460022211074829,3.460022211074829,1500,0.30233265615022253,0.0,-0.3310000002384186,0.21054646372795105,-0.033496029675006866,9.405206680297852,0.0015986401122063398,0.015986399725079536,0.012256240472197533
0.29838902493366104,Acceleration_X,0,3.432605654684138,1500,12.27400016784668,3.4503579139709473,3.4503579139709473,1500,0.3015969301744986,0.0,0.07199999690055847,0.1698727160692215,-0.031103456392884254,9.364532470703125,0.0018650800921022892,0.024512480944395065,0.011723360046744347
0.29838902493366104,Acceleration_X,0,3.4220651553809303,1500,12.27400016784668,3.4503579139709473,3.4503579139709473,1500,0.3021617724168475,0.0,-0.27799999713897705,0.4832998514175415,0.2009761780500412,8.790314674377441,0.01465420052409172,0.02238096110522747,0.01198980025947094
0,Acceleration_X,0,1.9593435590361103,1500,12.26099967956543,3.433079957962036,3.433079957962036,1500,0.30369221747129904,0.0,-0.1860000044107437,0.05981433764100075,0.22490191459655762,10.072734832763672,-0.02238096110522747,0.015986399725079536,-0.0005328800179995596
0,Acceleration_X,0,1.5227878863089928,1500,12.26099967956543,3.4313769340515137,3.4313769340515137,1500,0.30227128178770835,0.0,0.05000000074505806,0.9378888010978699,-1.2967748641967773,8.809455871582031,0.005595240276306868,-0.0037301601842045784,-0.015453520230948925
0,Acceleration_X,0,0.8689625544910982,1500,12.26200008392334,3.421438455581665,3.421438455581665,1500,0.29673639929835066,0.0,-0.3330000042915344,-0.05263661593198776,-0.021533161401748657,9.079816818237305,-0.0037301601842045784,-0.02051588147878647,-0.0002664400089997798
0,Acceleration_X,0,0.2779359075429315,1500,12.26200008392334,1.958513855934143,1.958513855934143,1500,0.2799069356086726,0.0,-0.1599999964237213,-0.4952627122402191,0.009570294059813023,9.041535377502441,-0.05835036188364029,-0.008526080287992954,-0.00905896071344614
0,Acceleration_X,0,0.0,1500,12.239999771118164,1.5214999914169312,1.5214999914169312,1500,0.24664423719168566,0.0,-0.3790000081062317,-0.8852521777153015,-0.8374007344245911,7.902670383453369,-0.03676871955394745,0.058083921670913696,-0.01198980025947094
0,Acceleration_X,0,0.0,1500,12.239999771118164,0.8669999837875366,0.8669999837875366,1500,0.18573501838912593,0.0,0.04600000008940697,-0.5885730981826782,-0.07177720218896866,8.948225021362305,-0.009325399994850159,0.017851481214165688,0.007193880155682564
0,Acceleration_X,0,0.0,1500,12.236000061035156,0.2753100097179413,0.2753100097179413,1500,0.10235933582578306,0.0,0.029999999329447746,-1.1603981256484985,0.07177720218896866,9.752129554748535,0.025311801582574844,-0.04582768306136131,0.01891724020242691
0,Acceleration_X,0,0.0,1500,12.236000061035156,0.0,0.0,1500,0.0439463073186363,0.0,-0.14900000393390656,-1.0599100589752197,0.2631830871105194,10.000957489013672,0.017585041001439095,-0.03170635923743248,0.014387760311365128
0,Acceleration_X,0,0.0,1500,12.243000030517578,0.0,0.0,1500,0.018758669418704774,0.0,-0.009999999776482582,-0.12680639326572418,-0.277538537979126,9.302326202392578,0.0010657600359991193,-0.01198980025947094,-0.006661000195890665
0,Acceleration_X,0,0.0,1500,12.243000030517578,0.0,0.0,1500,0.009935782270603025,0.0,0.0,0.45458897948265076,-0.239257350564003,9.299933433532715,0.0002664400089997798,-0.00452948035672307,-0.009325399994850159
0,Acceleration_X,0,0.0,1500,12.251999855041504,0.0,0.0,1500,0.006285992785872024,0.0,0.0,0.2583979368209839,-0.19140587747097015,9.311896324157715,-0.0002664400089997798,0.0005328800179995596,0.0007993200561031699
0,Acceleration_X,0,0.0,1500,12.251999855041504,0.0,0.0,1500,0.004448810688583401,0.0,0.0,0.24164992570877075,-0.07177720218896866,9.438702583312988,0.0018650800921022892,0.002397960051894188,-0.0013322000158950686
0,Acceleration_X,0,0.0,1500,12.244999885559082,0.0,0.0,1500,0.0033825323275755615,0.0,0.0,0.21054646372795105,-0.05263661593198776,9.395636558532715,0.0010657600359991193,-0.0002664400089997798,0.0013322000158950686
0,Acceleration_X,0,0.0,1500,12.244999885559082,0.0,0.0,1500,0.0026995347751814338,0.0,0.0,0.3134271204471588,-0.1507321298122406,9.331036567687988,-0.0005328800179995596,-0.0005328800179995596,-0.0002664400089997798
0,Acceleration_X,0,0.0,1500,12.241000175476074,0.0,0.0,1500,0.002230179141979015,0.0,0.0,0.25361278653144836,-0.05263661593198776,9.421954154968262,-0.0002664400089997798,0.0005328800179995596,-0.0002664400089997798
0,Acceleration_X,0,0.0,1500,12.241000175476074,0.0,0.0,1500,0.0018904111537433373,0.0,0.0,0.2320796251296997,-0.1507321298122406,9.323859214782715,0.0005328800179995596,0.0010657600359991193,-0.0002664400089997798
0,Acceleration_X,0,0.0,1500,12.223999977111816,0.0,0.0,1500,0.001634459407144943,0.0,0.0,0.29189395904541016,-0.09331036359071732,9.290363311767578,-0.0007993200561031699,0.0,0.0
0,Acceleration_X,0,0.0,1500,12.223999977111816,0.0,0.0,1500,0.0014355065946036378,0.0,0.0,0.24643507599830627,-0.031103456392884254,9.390851020812988,0.0005328800179995596,-0.0002664400089997798,-0.0013322000158950686
0,Acceleration_X,0,0.0,1500,12.246000289916992,0.0,0.0,1500,0.0012769015838299384,0.0,0.0,0.277538537979126,-0.11723610013723373,9.309503555297852,-0.0002664400089997798,0.0007993200561031699,0.0002664400089997798
0,Acceleration_X,0,0.0,1500,12.246000289916992,0.0,0.0,1500,0.0011478079687518273,0.0,0.0,0.2631830871105194,-0.033496029675006866,9.424346923828125,0.0,0.0010657600359991193,-0.0010657600359991193
0,Acceleration_X,0,0.0,1500,12.255000114440918,0.0,0.0,1500,0.0010408947717267065,0.0,0.0,0.2895013988018036,-0.04067374765872955,9.369318008422852,0.0002664400089997798,-0.0005328800179995596,-0.0005328800179995596
