Reference,Bias_Sensor,Bias_val,Throttle_Control,Servo_Control,Voltage,Throttle_A,Throttle_B,Servo,Linear_X,Linear_Y,Linear_Z,Acceleration_X,Acceleration_Y,Acceleration_Z,Angular_X,Angular_Y,Angular_Z
0,Acceleration_Y,0,0.0,1500,12.255000114440918,0.0,0.0,1500,0.0,0.0,0.0,0.22490191459655762,-0.04067374765872955,9.383673667907715,-0.0002664400089997798,0.0005328800179995596,-0.0002664400089997798
0,Acceleration_Y,0,0.0,1500,12.255000114440918,0.0,0.0,1500,0.0,0.0,0.0,0.239257350564003,-0.031103456392884254,9.407599449157715,0.0005328800179995596,-0.0005328800179995596,0.0
0,Acceleration_Y,0,0.0,1500,12.253000259399414,0.0,0.0,1500,0.0,0.0,0.0,0.24643507599830627,-0.05981433764100075,9.390851020812988,-0.0002664400089997798,0.0002664400089997798,0.0002664400089997798
0,Acceleration_Y,0,0.0,1500,12.253000259399414,0.0,0.0,1500,0.0,0.0,0.0,0.23447220027446747,-0.06459948420524597,9.421954154968262,-0.0007993200561031699,0.0010657600359991193,-0.0002664400089997798
0,Acceleration_Y,0,0.0,1500,12.255999565124512,0.0,0.0,1500,0.0,0.0,0.0,0.24164992570877075,-0.0813474953174591,9.304718017578125,0.0002664400089997798,0.0010657600359991193,0.0
0.31099261401896267,Acceleration_Y,0,1.5081084082897378,1500,12.255999565124512,0.0,0.0,1500,0.0,0.0,0.0,0.24643507599830627,-0.02631830796599388,9.402813911437988,-0.0002664400089997798,0.0005328800179995596,0.0002664400089997798
0.31099261401896267,Acceleration_Y,0,1.959037457562395,1500,12.255999565124512,0.0,0.0,1500,0.0,0.0,0.0,0.23686477541923523,-0.08852522075176239,9.412384033203125,0.0002664400089997798,-0.0007993200561031699,-0.0010657600359991193
0.31099261401896267,Acceleration_Y,0,2.658322668501267,1500,12.255999565124512,0.0,0.0,1500,0.0,0.0,0.0,0.275145947933197,-0.06220691278576851,9.393243789672852,-0.0005328800179995596,-0.0002664400089997798,0.0013322000158950686
0.31099261401896267,Acceleration_Y,0,3.3427504285642207,1500,12.258000373840332,1.506712555885315,1.506712555885315,1500,0.0032000001519918433,0.0,0.11100000143051147,0.6986314654350281,0.531151294708252,9.240118980407715,-0.0015986401122063398,-0.002397960051894188,-0.003463720204308629
0.31099261401896267,Acceleration_Y,0,3.9963942754475488,1500,12.258000373840332,1.9578750133514404,1.9578750133514404,1500,0.011771929928171249,0.0,-0.05700000002980232,1.4570772647857666,-0.4282706677913666,8.838166236877441,0.0010657600359991193,0.01198980025947094,0.014920640736818314
0.31099261401896267,Acceleration_Y,0,4.5721675003863735,1500,12.277000427246094,2.656606435775757,2.656606435775757,1500,0.03331530240857399,0.0,-0.026000000536441803,1.3637669086456299,0.04067374765872955,8.479280471801758,0.005062360316514969,0.019983001053333282,-0.020782319828867912
0.31099261401896267,Acceleration_Y,0,4.980645126861233,1500,12.277000427246094,3.340367317199707,3.340367317199707,1500,0.08146581061709599,0.0,-0.026000000536441803,1.2967748641967773,-0.7153794765472412,9.924394607543945,0.025578241795301437,0.03410432115197182,-0.002397960051894188
0.31099261401896267,Acceleration_Y,0,4.581813384904787,1500,12.305000305175781,3.9957070350646973,3.9957070350646973,1500,0.2781207857994278,0.0,-0.1860000044107437,1.7178677320480347,-0.4210929274559021,9.898077011108398,0.008259640075266361,0.026111120358109474,-0.015453520230948925
0.31099261401896267,Acceleration_Y,0,4.72309908722156,1500,12.305000305175781,4.571649074554443,4.571649074554443,1500,0.2966791365893588,0.0,-0.22100000083446503,1.8159632682800293,-0.488085001707077,8.268733978271484,-0.0463605597615242,-0.01705216057598591,-0.013055560179054737
0.31099261401896267,Acceleration_Y,0,4.639895207256902,1500,12.333999633789062,4.9781389236450195,4.9781389236450195,1500,0.32353633736337395,0.0,-0.164000004529953,1.4714326858520508,-1.0096659660339355,8.694612503051758,-0.046094123274087906,-0.004795920103788376,-0.012256240472197533
0.31099261401896267,Acceleration_Y,0,4.489174966224513,1500,12.333999633789062,4.578997611999512,4.578997611999512,1500,0.3532300997434967,0.0,0.07599999755620956,0.3325677216053009,-0.945066511631012,9.747344017028809,-0.027709761634469032,0.04529480263590813,-0.005328800063580275
0.31099261401896267,Acceleration_Y,0,4.30873999981859,1500,12.305999755859375,4.7224273681640625,4.7224273681640625,1500,0.3757252869040095,0.0,0.0430000014603138,0.9809551239013672,0.265575647354126,7.668198108673096,-0.0540873222053051,-0.02051588147878647,0.006927440408617258
0.31099261401896267,Acceleration_Y,0,4.090420492521494,1500,12.305999755859375,4.638678550720215,4.638678550720215,1500,0.3944545371575148,0.0,0.10499999672174454,0.6364245414733887,1.0048809051513672,10.273710250854492,0.11350344121456146,-0.1270918846130371,0.02930840104818344
0.31099261401896267,Acceleration_Y,0,3.90873406161536,1500,12.28600025177002,4.487802505493164,4.487802505493164,1500,0.3962570382009239,0.0,-0.18199999630451202,0.05981433764100075,-0.6412097215652466,9.122882843017578,-0.03170635923743248,0.04795920103788376,0.031439922749996185
0.31099261401896267,Acceleration_Y,0,3.7359539196110045,1500,12.28600025177002,4.3069257736206055,4.3069257736206055,1500,0.3926373035316517,0.0,-0.3619999885559082,-0.004785147029906511,-0.8326155543327332,6.847545146942139,0.012522680684924126,0.011456920765340328,0.0026644000317901373
0.31099261401896267,Acceleration_Y,0,3.5635947750871293,1500,12.272000312805176,4.088962554931641,4.088962554931641,1500,0.3896808936322509,0.0,-0.35100001096725464,-0.16508756577968597,-0.057421762496232986,8.096468925476074,0.02930840104818344,0.0426304005086422,0.006394560448825359
0.31099261401896267,Acceleration_Y,0,3.407998427016634,1500,12.272000312805176,3.9065866470336914,3.9065866470336914,1500,0.3847938584444568,0.0,-0.3569999933242798,-0.24643507599830627,0.34692317247390747,8.819025993347168,-0.012789120897650719,-0.012256240472197533,0.006927440408617258
0.31099261401896267,Acceleration_Y,0,3.278796843459814,1500,12.256999969482422,3.7332780361175537,3.7332780361175537,1500,0.37637737594565024,0.0,-0.32199999690055847,-0.06220691278576851,0.3708488941192627,9.704277992248535,0.004795920103788376,-0.015453520230948925,-0.022647401317954063
0.31099261401896267,Acceleration_Y,0,3.147002243782999,1500,12.256999969482422,3.5613396167755127,3.5613396167755127,1500,0.3718394249729652,0.0,0.08500000089406967,-0.5167958736419678,0.3086419701576233,8.826203346252441,-0.01332200039178133,0.025578241795301437,-0.0018650800921022892
0.31099261401896267,Acceleration_Y,0,3.0649728373319314,1500,12.27400016784668,3.4060351848602295,3.4060351848602295,1500,0.3597646512692933,0.0,-0.30300000309944153,0.4474112391471863,-1.0144511461257935,9.522442817687988,-0.03170635923743248,-0.0231802798807621,0.019183680415153503
0.31099261401896267,Acceleration_Y,0,2.9949747572772827,1500,12.27400016784668,3.2764761447906494,3.2764761447906494,1500,0.3495667245232986,0.0,0.020999999716877937,0.1890133023262024,-1.244138240814209,10.125370979309082,-0.03197279945015907,-0.006661000195890665,0.006394560448825359
0.31099261401896267,Acceleration_Y,0,2.9986753950980765,1500,12.260000228881836,3.146733283996582,3.146733283996582,1500,0.32923049999398707,0.0,-0.4300000071525574,-0.29907169938087463,-0.3134271204471588,10.670877456665039,-0.017585041001439095,0.02051588147878647,0.018650799989700317
0.31099261401896267,Acceleration_Y,0,2.999758032548519,1500,12.260000228881836,3.0632972717285156,3.0632972717285156,1500,0.3171931904766548,0.0,-0.07400000095367432,0.07656235247850418,-0.9307110905647278,9.357355117797852,0.018650799989700317,-0.051955800503492355,0.021048760041594505
0.31099261401896267,Acceleration_Y,0,3.0235017435871163,1500,12.272000312805176,2.993004560470581,2.993004560470581,1500,0.30743464562900846,0.0,0.09799999743700027,0.6077136397361755,-0.46894440054893494,9.979424476623535,0.05914968252182007,-0.06314628571271896,0.016519280150532722
0.3131690453230074,Acceleration_Y,0,3.075927217091241,1500,12.272000312805176,2.996413230895996,2.996413230895996,1500,0.29883915968009567,0.0,0.06300000101327896,0.5981433987617493,-0.0693846344947815,8.228060722351074,0.0077267601154744625,-0.008526080287992954,0.01811792142689228
0.3131690453230074,Acceleration_Y,0,3.1309555717585935,1500,12.269000053405762,2.997385025024414,2.997385025024414,1500,0.2923715600691077,0.0,0.0430000014603138,0.3086419701576233,-0.2009761780500412,9.843047142028809,-0.010124720633029938,-0.009858280420303345,0.0005328800179995596
0.3131690453230074,Acceleration_Y,0,3.203607311385304,1500,12.269000053405762,3.0229454040527344,3.0229454040527344,1500,0.2859729069397214,0.0,-0.04100000113248825,0.7153794765472412,0.20336875319480896,9.742559432983398,0.002397960051894188,-0.008792520500719547,0.005328800063580275
0.3131690453230074,Acceleration_Y,0,3.293804702919234,1500,12.265000343322754,3.074767589569092,3.074767589569092,1500,0.27892440111550626,0.0,-0.1420000046491623,0.39955976605415344,-0.48569241166114807,8.732892990112305,-0.0026644000317901373,0.030374161899089813,0.0031972802244126797
0.3131690453230074,Acceleration_Y,0,3.3927938399603863,1500,12.265000343322754,3.1292784214019775,3.1292784214019775,1500,0.2732472249337838,0.0,-0.2720000147819519,0.6699205636978149,0.08613264560699463,9.223370552062988,0.024246040731668472,0.015986399725079536,-0.0021315200719982386
0.3131690453230074,Acceleration_Y,0,3.4988713371460167,1500,12.272000312805176,3.202651023864746,3.202651023864746,1500,0.2689687387221545,0.0,-0.39899998903274536,0.11245095729827881,-0.2631830871105194,10.111015319824219,0.0021315200719982386,0.012256240472197533,0.017585041001439095
0.3131690453230074,Acceleration_Y,0,3.6038196551160735,1500,12.272000312805176,3.2912821769714355,3.2912821769714355,1500,0.2671225039017606,0.0,-0.38199999928474426,0.6675280332565308,-0.2703607976436615,8.366829872131348,0.026111120358109474,0.011190480552613735,0.006661000195890665
0.3131690453230074,Acceleration_Y,0,3.6853389665139713,1500,12.28600025177002,3.390594959259033,3.390594959259033,1500,0.2713613982946913,0.0,-0.07599999755620956,0.7153794765472412,-0.7321274876594543,8.874054908752441,0.018650799989700317,-0.012789120897650719,-0.011190480552613735
0.3131690453230074,Acceleration_Y,0,3.7515005855920767,1500,12.28600025177002,3.4963908195495605,3.4963908195495605,1500,0.2778104890232098,0.0,0.029999999329447746,0.33017513155937195,-0.26079049706459045,9.022395133972168,-0.029841281473636627,-0.026377560570836067,0.0002664400089997798
0.3131690453230074,Acceleration_Y,0,3.8156658447803657,1500,12.270000457763672,3.6026084423065186,3.6026084423065186,1500,0.2820601291650847,0.0,-0.11800000071525574,0.5598621964454651,-0.21054646372795105,8.620442390441895,-0.011723360046744347,0.005595240276306868,0.002397960051894188
0.3131690453230074,Acceleration_Y,0,3.881794709104388,1500,12.270000457763672,3.68440842628479,3.68440842628479,1500,0.28355515867485664,0.0,-0.36000001430511475,0.7512680888175964,-0.12919896841049194,10.491435050964355,-0.035702962428331375,0.012789120897650719,0.005062360316514969
0.3131690453230074,Acceleration_Y,0,3.9133446770258,1500,12.267999649047852,3.7502593994140625,3.7502593994140625,1500,0.29103792627748526,0.0,0.01899999938905239,0.945066511631012,0.6579577326774597,9.622930526733398,-0.02584468014538288,0.041564639657735825,0.01198980025947094
0.3131690453230074,Acceleration_Y,0,3.952033831723668,1500,12.267999649047852,3.813303232192993,3.813303232192993,1500,0.2945610852214602,0.0,-0.36000001430511475,0.5598621964454651,-0.6962388753890991,10.460330963134766,0.05142292007803917,-0.06767576187849045,0.011456920765340328
0.3131690453230074,Acceleration_Y,0,3.948538042476846,1500,12.279000282287598,3.8798232078552246,3.8798232078552246,1500,0.30449176583200616,0.0,0.10300000011920929,0.4832998514175415,-0.0502440445125103,9.366925239562988,0.026377560570836067,-0.024246040731668472,0.01065760012716055
0.3131690453230074,Acceleration_Y,0,3.9535753161654115,1500,12.279000282287598,3.9122259616851807,3.9122259616851807,1500,0.30912024677501054,0.0,-0.36800000071525574,0.6818834543228149,0.7799789905548096,9.919610023498535,-0.0029308400116860867,-0.007993199862539768,0.003463720204308629
0.3131690453230074,Acceleration_Y,0,3.9197091429587045,1500,12.267999649047852,3.9513180255889893,3.9513180255889893,1500,0.318744755926243,0.0,-0.017000000923871994,0.7919418215751648,-1.4690401554107666,10.589529991149902,-0.012789120897650719,0.055419523268938065,0.01465420052409172
0.3131690453230074,Acceleration_Y,0,3.8597947727168296,1500,12.267999649047852,3.946206569671631,3.946206569671631,1500,0.3300947558867166,0.0,0.017000000923871994,0.9378888010978699,-0.6077136397361755,9.615753173828125,-0.0015986401122063398,0.04955784231424332,-0.008792520500719547
0.3131690453230074,Acceleration_Y,0,3.8170115224754455,1500,12.274999618530273,3.9518680572509766,3.9518680572509766,1500,0.3329463453415558,0.0,-0.375,0.3373528718948364,1.0455546379089355,10.489042282104492,0.01465420052409172,-0.007993199862539768,-0.010924040339887142
0.3131690453230074,Acceleration_Y,0,3.768769643698594,1500,12.274999618530273,3.9177706241607666,3.9177706241607666,1500,0.3341816893636266,0.0,-0.2939999997615814,-0.5933582186698914,0.9115704894065857,8.287874221801758,0.021848080679774284,-0.007193880155682564,-0.0037301601842045784
0.3131690453230074,Acceleration_Y,0,3.6986419918004425,1500,12.272000312805176,3.8571579456329346,3.8571579456329346,1500,0.33909489298739315,0.0,0.08500000089406967,0.7464829087257385,-1.1292946338653564,9.718633651733398,0.021048760041594505,0.0010657600359991193,-0.026111120358109474
0.3131690453230074,Acceleration_Y,0,3.6525729162582685,1500,12.272000312805176,3.816251039505005,3.816251039505005,1500,0.33738552915401265,0.0,-0.3619999885559082,0.976170003414154,-1.3876926898956299,9.393243789672852,-0.028509080410003662,-0.037301599979400635,0.022647401317954063
0.3131690453230074,Acceleration_Y,0,3.6070721272547233,1500,12.25100040435791,3.7671825885772705,3.7671825885772705,1500,0.3352375072209391,0.0,-0.2849999964237213,-0.10527323186397552,0.4210929274559021,9.086994171142578,-0.019450120627880096,-0.027976201847195625,0.019183680415153503
0.3131690453230074,Acceleration_Y,0,3.5455790528476014,1500,12.25100040435791,3.6974198818206787,3.6974198818206787,1500,0.3373230208670585,0.0,0.04100000113248825,0.28471624851226807,-0.6244617104530334,9.646856307983398,-0.03357144072651863,0.024512480944395065,0.034903641790151596
0.3131690453230074,Acceleration_Y,0,3.5087604687970804,1500,12.274999618530273,3.6518123149871826,3.6518123149871826,1500,0.3340574090195644,0.0,-0.375,-0.05981433764100075,-0.17705044150352478,7.371519088745117,-0.026111120358109474,0.005062360316514969,0.03010772168636322
0.3131690453230074,Acceleration_Y,0,3.454202482866701,1500,12.274999618530273,3.605781316757202,3.605781316757202,1500,0.3350880423830083,0.0,0.09799999743700027,0.055029191076755524,1.2895971536636353,9.142023086547852,0.06607712060213089,-0.0386338010430336,0.030374161899089813
0.3131690453230074,Acceleration_Y,0,3.4247733203531023,1500,12.281999588012695,3.5447216033935547,3.5447216033935547,1500,0.33114788582696353,0.0,-0.36000001430511475,-0.30385681986808777,0.5646473169326782,9.371710777282715,0.0077267601154744625,0.036502283066511154,0.022913841530680656
0.3131690453230074,Acceleration_Y,0,3.3829429453442796,1500,12.281999588012695,3.507193088531494,3.507193088531494,1500,0.3307805486916118,0.0,0.06300000101327896,-0.4713369905948639,0.40434491634368896,8.510383605957031,-0.021848080679774284,0.06314628571271896,0.013854880817234516
0.3131690453230074,Acceleration_Y,0,3.3653323722017285,1500,12.26200008392334,3.4520936012268066,3.4520936012268066,1500,0.32618253022557675,0.0,-0.3569999933242798,0.14833955466747284,0.8134750127792358,9.594220161437988,0.015986399725079536,0.013055560179054737,0.0010657600359991193
0.3131690453230074,Acceleration_Y,0,3.334198123415974,1500,12.26200008392334,3.4231417179107666,3.4231417179107666,1500,0.3258084432013074,0.0,0.03200000151991844,0.14355440437793732,0.36845633387565613,8.888410568237305,0.0213152002543211,0.07540252059698105,-0.004263040143996477
0.3131690453230074,Acceleration_Y,0,3.3271029518056596,1500,12.26200008392334,3.3805654048919678,3.3805654048919678,1500,0.3213456614589864,0.0,-0.24799999594688416,0.27275338768959045,-0.38041919469833374,9.680352210998535,-0.02238096110522747,-0.006927440408617258,-0.0077267601154744625
0.3131690453230074,Acceleration_Y,0,3.332702455635397,1500,12.26200008392334,3.363534688949585,3.363534688949585,1500,0.31566126486452317,0.0,-0.3659999966621399,0.2560053765773773,-0.11005838215351105,9.644463539123535,-0.0037301601842045784,0.04103176295757294,-0.0018650800921022892
0.3131690453230074,Acceleration_Y,0,3.328833271453221,1500,12.281000137329102,3.3329269886016846,3.3329269886016846,1500,0.31436539182477363,0.0,0.0430000014603138,0.5598621964454651,-0.239257350564003,10.075126647949219,-0.0002664400089997798,0.015453520230948925,-0.029841281473636627
0.3131690453230074,Acceleration_Y,0,3.3439822755170256,1500,12.281000137329102,3.3261044025421143,3.3261044025421143,1500,0.3104725492051124,0.0,-0.1509999930858612,0.3134271204471588,-0.13637669384479523,9.185090065002441,-0.008259640075266361,-0.02584468014538288,0.006927440408617258
0.3131690453230074,Acceleration_Y,0,3.374739803765099,1500,12.267000198364258,3.330831527709961,3.330831527709961,1500,0.3047398493984833,0.0,-0.3659999966621399,-0.08374007046222687,-0.7608383893966675,10.115800857543945,0.002397960051894188,0.014121320098638535,-0.008792520500719547
0.3131690453230074,Acceleration_Y,0,3.3908403854814915,1500,12.267000198364258,3.3274238109588623,3.3274238109588623,1500,0.3043876527653615,0.0,0.026000000536441803,0.4067375063896179,-1.081443190574646,9.421954154968262,0.0007993200561031699,-0.0173186007887125,0.01065760012716055
0.3131690453230074,Acceleration_Y,0,3.4131358577638333,1500,12.26099967956543,3.342825174331665,3.342825174331665,1500,0.30380706180636435,0.0,0.0430000014603138,0.7225571870803833,-0.03588860109448433,9.563116073608398,-0.005861680023372173,0.051955800503492355,0.018650799989700317
0.3131690453230074,Acceleration_Y,0,3.44902033545248,1500,12.26099967956543,3.3734779357910156,3.3734779357910156,1500,0.30065342183439864,0.0,-0.2630000114440918,1.0311992168426514,-0.7632309198379517,9.646856307983398,0.06607712060213089,-0.08419504016637802,0.01811792142689228
0.3131690453230074,Acceleration_Y,0,3.489172220515908,1500,12.270000457763672,3.389587640762329,3.389587640762329,1500,0.29766216417150043,0.0,-0.31299999356269836,0.4258780777454376,0.29189395904541016,8.484066009521484,0.03410432115197182,-0.02238096110522747,0.02504536136984825
0.3131690453230074,Acceleration_Y,0,3.510179123201729,1500,12.270000457763672,3.4117417335510254,3.4117417335510254,1500,0.30002936452827844,0.0,0.07000000029802322,0.16748014092445374,0.38520434498786926,9.450665473937988,-0.015187080949544907,0.0013322000158950686,0.01625283993780613
0.3131690453230074,Acceleration_Y,0,3.547989331270171,1500,12.251999855041504,3.4475765228271484,3.4475765228271484,1500,0.29872086739625814,0.0,-0.19300000369548798,0.3756340444087982,-0.10766580700874329,8.773567199707031,-0.04582768306136131,0.03890024125576019,0.02051588147878647
0.3131690453230074,Acceleration_Y,0,3.5829297320712885,1500,12.251999855041504,3.4884166717529297,3.4884166717529297,1500,0.29800304154858076,0.0,-0.35499998927116394,0.6340319514274597,-0.009570294059813023,9.637286186218262,0.0018650800921022892,0.0,0.009325399994850159
0.3131690453230074,Acceleration_Y,0,3.5989906733400217,1500,12.274999618530273,3.508604049682617,3.508604049682617,1500,0.30160864578461166,0.0,0.06300000101327896,0.3660637438297272,0.07177720218896866,10.362236022949219,0.013854880817234516,0.0463605597615242,0.012522680684924126
0.3131690453230074,Acceleration_Y,0,3.6313733264086316,1500,12.274999618530273,3.5461111068725586,3.5461111068725586,1500,0.30089321403332525,0.0,-0.38199999928474426,0.41152265667915344,0.5957508087158203,9.039142608642578,-0.003463720204308629,-0.0026644000317901373,0.014920640736818314
0.3131690453230074,Acceleration_Y,0,3.6405568204573817,1500,12.272000312805176,3.581037759780884,3.581037759780884,1500,0.30457494605104396,0.0,0.026000000536441803,0.3780266046524048,-0.7153794765472412,10.778543472290039,0.01971656084060669,0.014121320098638535,0.0026644000317901373
0.2827419617122938,Acceleration_Y,0,3.5141820706177445,1500,12.272000312805176,3.5963778495788574,3.5963778495788574,1500,0.304799496269095,0.0,-0.20399999618530273,0.5048329830169678,-0.13637669384479523,9.374102592468262,0.007993199862539768,-0.0007993200561031699,0.002397960051894188
0.2827419617122938,Acceleration_Y,0,3.4802454506018012,1500,12.265000343322754,3.630099296569824,3.630099296569824,1500,0.30662398680825004,0.0,-0.21199999749660492,-0.22250933945178986,1.1938941478729248,8.369221687316895,0.0005328800179995596,-0.027709761634469032,-0.003996599931269884
0.2827419617122938,Acceleration_Y,0,3.412955097451694,1500,12.265000343322754,3.6386168003082275,3.6386168003082275,1500,0.3097272788791604,0.0,0.014999999664723873,-0.5478993058204651,1.370944619178772,9.168341636657715,-0.005861680023372173,0.0,0.01705216057598591
0.2827419617122938,Acceleration_Y,0,3.3610339391724464,1500,12.263999938964844,3.5122733116149902,3.5122733116149902,1500,0.30841183062656347,0.0,-0.36399999260902405,-0.1818355917930603,0.1890133023262024,8.929084777832031,-0.03783448040485382,-0.028775520622730255,0.009591840207576752
0.2827419617122938,Acceleration_Y,0,3.2907261937812073,1500,12.263999938964844,3.479909896850586,3.479909896850586,1500,0.3107877163576164,0.0,0.03700000047683716,-1.3207005262374878,-0.6507799625396729,8.919513702392578,-0.016785720363259315,-0.010124720633029938,0.017851481214165688
0.2827419617122938,Acceleration_Y,0,3.2401132107098634,1500,12.267000198364258,3.410907745361328,3.410907745361328,1500,0.308607540460935,0.0,-0.35100001096725464,0.17226529121398926,0.06699205935001373,9.857402801513672,0.0658106803894043,-0.07859980314970016,0.006128120236098766
0.2827419617122938,Acceleration_Y,0,3.1704985495257616,1500,12.267000198364258,3.359794855117798,3.359794855117798,1500,0.310599093417478,0.0,0.04100000113248825,-0.33496028184890747,-0.22490191459655762,7.601205825805664,0.03596940264105797,0.007993199862539768,0.022913841530680656
0.2827419617122938,Acceleration_Y,0,3.1205881649733844,1500,12.265000343322754,3.28940486907959,3.28940486907959,1500,0.3082916423347727,0.0,-0.1599999964237213,-0.19619102776050568,-1.0957986116409302,10.099052429199219,-0.00452948035672307,0.003996599931269884,0.0
0.2827419617122938,Acceleration_Y,0,3.081874601622131,1500,12.265000343322754,3.2383008003234863,3.2383008003234863,1500,0.30404187679206274,0.0,-0.375,0.48569241166114807,-0.691453754901886,9.682744979858398,-0.0005328800179995596,0.017851481214165688,0.010391159914433956
0.2827419617122938,Acceleration_Y,0,3.0306148083044127,1500,12.258999824523926,3.1686108112335205,3.1686108112335205,1500,0.30403479896314933,0.0,0.014999999664723873,1.1436501741409302,-0.2703607976436615,9.412384033203125,0.004263040143996477,0.01465420052409172,0.0010657600359991193
0.2827419617122938,Acceleration_Y,0,2.986898072713849,1500,12.258999824523926,3.119234561920166,3.119234561920166,1500,0.30316207608713697,0.0,0.05400000140070915,-0.004785147029906511,-0.3134271204471588,9.165948867797852,0.002397960051894188,0.027176881209015846,-0.0015986401122063398
0.2827419617122938,Acceleration_Y,0,2.9599377123564765,1500,12.267999649047852,3.0806310176849365,3.0806310176849365,1500,0.29910250301183533,0.0,-0.18199999630451202,0.138769268989563,0.05981433764100075,10.618241310119629,-0.007993199862539768,0.008526080287992954,0.009591840207576752
0.2827419617122938,Acceleration_Y,0,3.1459363537295553,1500,12.267999649047852,3.0295143127441406,3.0295143127441406,1500,0.25249184952360204,0.0,-0.35499998927116394,-0.4832998514175415,0.5742176175117493,9.118097305297852,0.023446720093488693,0.022114520892500877,0.004263040143996477
0.2827419617122938,Acceleration_Y,0,3.1735837910491083,1500,12.260000228881836,2.9849696159362793,2.9849696159362793,1500,0.25313274737619607,0.0,-0.36399999260902405,0.2895013988018036,0.7680160999298096,8.941046714782715,0.0021315200719982386,0.005062360316514969,0.006927440408617258
0.2827419617122938,Acceleration_Y,0,2.865781085989324,1500,12.260000228881836,2.9577250480651855,2.9577250480651855,1500,0.3304420928445004,0.0,-0.34599998593330383,0.06699205935001373,0.138769268989563,8.826203346252441,-0.011456920765340328,-0.034637201577425,0.027709761634469032
0.2827419617122938,Acceleration_Y,0,2.986902472829563,1500,12.272000312805176,3.144700050354004,3.144700050354004,1500,0.2960847386336799,0.0,-0.164000004529953,0.35649344325065613,-0.5646473169326782,9.398028373718262,-0.040765322744846344,-0.04316328093409538,0.012522680684924126
0.2827419617122938,Acceleration_Y,0,2.960978349365418,1500,12.272000312805176,3.171971321105957,3.171971321105957,1500,0.28957970685455664,0.0,-0.004000000189989805,0.1004880890250206,-0.33496028184890747,9.419562339782715,-0.021848080679774284,-0.033837880939245224,0.01971656084060669
0.2827419617122938,Acceleration_Y,0,2.968079288928991,1500,12.27400016784668,2.8639333248138428,2.8639333248138428,1500,0.28387019594983115,0.0,0.006000000052154064,-0.07895492762327194,0.3373528718948364,9.725811004638672,-0.035702962428331375,0.03676871955394745,0.01705216057598591
0.2827419617122938,Acceleration_Y,0,2.974073557496324,1500,12.27400016784668,2.984968423843384,2.984968423843384,1500,0.2811691153337081,0.0,0.017000000923871994,0.3636711835861206,0.02392573468387127,8.766388893127441,0.04129820317029953,-0.09405332058668137,0.026910440996289253
0.2827419617122938,Acceleration_Y,0,2.9879187058347174,1500,12.258000373840332,2.9589450359344482,2.9589450359344482,1500,0.27859866964370333,0.0,0.06300000101327896,0.7297348976135254,-0.12919896841049194,9.436309814453125,0.03943312168121338,-0.051955800503492355,0.032239239662885666
0.2827419617122938,Acceleration_Y,0,3.001198532750277,1500,12.258000373840332,2.9674577713012695,2.9674577713012695,1500,0.2773572796431514,0.0,0.04100000113248825,0.09091779589653015,-0.05263661593198776,10.383769035339355,0.03197279945015907,-0.01625283993780613,0.025311801582574844
0.2827419617122938,Acceleration_Y,0,3.0163740807575117,1500,12.277999877929688,2.972299337387085,2.972299337387085,1500,0.27652175467659346,0.0,0.029999999329447746,0.09331036359071732,-0.239257350564003,10.450760841369629,-0.018384359776973724,0.0005328800179995596,0.0077267601154744625
0.2827419617122938,Acceleration_Y,0,3.0325702449166982,1500,12.277999877929688,2.9859414100646973,2.9859414100646973,1500,0.2759294302563262,0.0,0.020999999716877937,-0.07177720218896866,-0.08374007046222687,8.632405281066895,-0.0213152002543211,0.02397960051894188,0.005328800063580275
0.2827419617122938,Acceleration_Y,0,3.0488342511171793,1500,12.272000312805176,2.9998223781585693,2.9998223781585693,1500,0.27564123656362327,0.0,0.04600000008940697,0.23447220027446747,-0.2703607976436615,8.926692008972168,-0.0013322000158950686,0.004263040143996477,0.006128120236098766
0.2827419617122938,Acceleration_Y,0,3.0643471054278226,1500,12.272000312805176,3.015162229537964,3.015162229537964,1500,0.2756888341757934,0.0,0.03200000151991844,0.26796823740005493,-0.691453754901886,9.015216827392578,0.006927440408617258,0.04023244231939316,-0.0007993200561031699
0.2827419617122938,Acceleration_Y,0,3.0800724832341926,1500,12.269000053405762,3.0314652919769287,3.0314652919769287,1500,0.27572542547919787,0.0,0.01899999938905239,-0.5024404525756836,0.5790027976036072,9.821514129638672,-0.010124720633029938,0.02397960051894188,-0.00452948035672307
0.2827419617122938,Acceleration_Y,0,3.0977976122608095,1500,12.269000053405762,3.046801805496216,3.046801805496216,1500,0.2753320630899597,0.0,0.04100000113248825,0.8565413355827332,-0.02392573468387127,8.177816390991211,-0.016519280150532722,0.03250567987561226,-0.005062360316514969
0.2827419617122938,Acceleration_Y,-0.7167390635227762,3.1138387792184266,1500,12.26099967956543,3.063547134399414,3.063547134399414,1500,0.2753985285480024,0.0,0.07000000029802322,0.16030243039131165,-0.29803869631048063,9.876543045043945,0.02824264019727707,-0.0005328800179995596,-0.005328800063580275
0.31034579462889006,Acceleration_Y,-0.7167390635227762,3.26358865634092,1500,12.26099967956543,3.0788731575012207,3.0788731575012207,1500,0.275544568211771,0.0,0.03700000047683716,-0.06459948420524597,-1.0828028073525033,9.555938720703125,-0.003996599931269884,0.0002664400089997798,-0.019983001053333282
0.31034579462889006,Acceleration_Y,-0.7167390635227762,3.429053930882353,1500,12.267999649047852,3.095966100692749,3.095966100692749,1500,0.25303177653220954,0.0,-0.1469999998807907,-0.031103456392884254,-0.6090732565140329,7.826107978820801,-0.0002664400089997798,-0.025311801582574844,0.005328800063580275
0.31034579462889006,Acceleration_Y,-0.7167390635227762,3.5374474155676046,1500,12.267999649047852,3.1113009452819824,3.1113009452819824,1500,0.2535596701825068,0.0,-0.23199999332427979,0.4569815397262573,-0.0013595869755349543,8.921906471252441,-0.002397960051894188,-0.013854880817234516,0.014387760311365128
0.31034579462889006,Acceleration_Y,-0.7167390635227762,3.3964371503283557,1500,12.26300048828125,3.261617660522461,3.261617660522461,1500,0.3090555227089861,0.0,-0.33500000834465027,0.33017513155937195,-0.6688875941550336,10.022490501403809,-0.016519280150532722,-0.029041960835456848,0.014387760311365128
0.31034579462889006,Acceleration_Y,-0.7167390635227762,3.5455664346380735,1500,12.26300048828125,3.42853045463562,3.42853045463562,1500,0.2880745792590392,0.0,-0.3840000033378601,0.5287587642669678,-1.4512591412281595,8.787922859191895,-0.02664400078356266,0.029041960835456848,0.0
0.31034579462889006,Acceleration_Y,-0.7167390635227762,3.554332498112327,1500,12.265000343322754,3.5364084243774414,3.5364084243774414,1500,0.2931404027406112,0.0,-0.1289999932050705,0.9929180145263672,-1.0182033231472574,9.721026420593262,0.04476192221045494,-0.09991500526666641,0.005062360316514969
0.31034579462889006,Acceleration_Y,-0.7167390635227762,3.567085895099496,1500,12.265000343322754,3.3950202465057373,3.3950202465057373,1500,0.2993265157922692,0.0,0.08299999684095383,0.679490864276886,-1.1474022915577493,8.878840446472168,0.01891724020242691,0.009591840207576752,-0.0005328800179995596
0.31034579462889006,Acceleration_Y,-0.7167390635227762,3.614068940846397,1500,12.276000022888184,3.5446951389312744,3.5446951389312744,1500,0.2957712292631503,0.0,-0.3160000145435333,0.033496029675006866,-0.49662229921575407,8.893196105957031,0.009325399994850159,-0.009858280420303345,0.012522680684924126
0.31034579462889006,Acceleration_Y,-0.7167390635227762,3.6231660637224214,1500,12.276000022888184,3.55322003364563,3.55322003364563,1500,0.30007389945924867,0.0,-0.09000000357627869,0.2895013988018036,-1.527821486256083,8.725715637207031,-0.045028362423181534,0.058883242309093475,-0.005861680023372173
0.31034579462889006,Acceleration_Y,-0.7167390635227762,3.6215720161921987,1500,12.267999649047852,3.566239356994629,3.566239356994629,1500,0.3058778649160013,0.0,0.07000000029802322,0.6747057437896729,-0.4774817129587732,9.075031280517578,-0.0018650800921022892,0.015719961374998093,0.011723360046744347
0.31034579462889006,Acceleration_Y,-0.7167390635227762,3.639532435522954,1500,12.267999649047852,3.6122443675994873,3.6122443675994873,1500,0.3052045912241784,0.0,-0.3490000069141388,0.5981433987617493,-1.1521874418472848,9.756915092468262,0.02158164046704769,0.05755104124546051,0.0037301601842045784
0.31034579462889006,Acceleration_Y,-0.7167390635227762,3.6261563697658503,1500,12.279000282287598,3.622304916381836,3.622304916381836,1500,0.31023685503050885,0.0,0.05900000035762787,0.7775864005088806,-1.1928612044071756,9.718633651733398,0.00905896071344614,0.03330500051379204,0.020782319828867912
0.31034579462889006,Acceleration_Y,-0.7167390635227762,3.6366284247690235,1500,12.279000282287598,3.6205997467041016,3.6205997467041016,1500,0.3089578036385674,0.0,-0.35499998927116394,0.1626949906349182,-1.5972061207508645,9.814336776733398,0.03330500051379204,0.08179708570241928,0.009325399994850159
0.31034579462889006,Acceleration_Y,-0.7167390635227762,3.61761854100388,1500,12.269000053405762,3.638099193572998,3.638099193572998,1500,0.3133105085906816,0.0,0.06499999761581421,0.8972150683403015,-1.2813863804554544,9.979424476623535,0.024246040731668472,-0.004795920103788376,0.005595240276306868
0.31034579462889006,Acceleration_Y,-0.7167390635227762,3.6184172867562188,1500,12.269000053405762,3.624467134475708,3.624467134475708,1500,0.31248900731060114,0.0,-0.3709999918937683,0.8948224782943726,-1.7933971932148538,10.876639366149902,-0.004263040143996477,-0.03703515976667404,-0.0026644000317901373
0.31034579462889006,Acceleration_Y,-0.7167390635227762,3.594676852912217,1500,12.270000457763672,3.6349875926971436,3.6349875926971436,1500,0.31625410634154133,0.0,0.07400000095367432,0.46176669001579285,-1.764686231872996,9.850225448608398,-0.024512480944395065,0.0037301601842045784,0.025311801582574844
0.31034579462889006,Acceleration_Y,-0.7167390635227762,3.5940211516291867,1500,12.270000457763672,3.616241931915283,3.616241931915283,1500,0.3142678294832592,0.0,-0.33799999952316284,0.7321274876594543,-0.7933014160012803,10.953201293945312,-0.039966002106666565,0.05168936029076576,0.022647401317954063
0.31034579462889006,Acceleration_Y,-0.7167390635227762,3.5659513364327013,1500,12.272000312805176,3.6168313026428223,3.6168313026428223,1500,0.3179097879477249,0.0,0.029999999329447746,-0.17705044150352478,-0.6545321507370077,7.826107978820801,-0.01625283993780613,-0.005595240276306868,0.028509080410003662
0.31034579462889006,Acceleration_Y,-0.7167390635227762,3.56199700747164,1500,12.272000312805176,3.5929689407348633,3.5929689407348633,1500,0.3158175794690712,0.0,-0.3109999895095825,0.7129868865013123,-0.7980865588402353,8.706575393676758,0.0173186007887125,-0.018650799989700317,0.012522680684924126
0.31034579462889006,Acceleration_Y,-0.7167390635227762,3.5299411634278886,1500,12.267000198364258,3.5932087898254395,3.5932087898254395,1500,0.31954270253188155,0.0,0.06300000101327896,-0.02631830796599388,-0.4822668632483087,9.589434623718262,0.0018650800921022892,-0.02477892115712166,0.018384359776973724
0.31034579462889006,Acceleration_Y,-0.7167390635227762,3.526397336613568,1500,12.267000198364258,3.5642449855804443,3.5642449855804443,1500,0.3166210509943031,0.0,-0.3490000069141388,0.5933582186698914,-1.2742086699223123,9.977031707763672,-0.028775520622730255,0.03890024125576019,0.011456920765340328
0.31034579462889006,Acceleration_Y,-0.7167390635227762,3.4959695548757694,1500,12.27299976348877,3.5591700077056885,3.5591700077056885,1500,0.31949864206855,0.0,0.052000001072883606,0.6412097215652466,-0.2693278243755899,9.988994598388672,-0.00905896071344614,0.0021315200719982386,0.026111120358109474
0.31034579462889006,Acceleration_Y,-0.7167390635227762,3.4908150877379516,1500,12.27299976348877,3.52848744392395,3.52848744392395,1500,0.316791263797266,0.0,-0.2939999997615814,0.6818834543228149,-0.09227735306974272,9.845439910888672,0.03170635923743248,0.03703515976667404,0.005595240276306868
0.31034579462889006,Acceleration_Y,-0.7167390635227762,3.4605761521149088,1500,12.26300048828125,3.5256125926971436,3.5256125926971436,1500,0.319588023710654,0.0,-0.0020000000949949026,0.34692317247390747,-0.2621500840401254,9.031965255737305,-0.0010657600359991193,0.019183680415153503,0.02238096110522747
0.31034579462889006,Acceleration_Y,-0.7167390635227762,3.458344636678192,1500,12.26300048828125,3.4932520389556885,3.4932520389556885,1500,0.3162218885300991,0.0,-0.25600001215934753,-0.14594697952270508,-1.5565323879932962,9.082208633422852,-0.0002664400089997798,0.10151364654302597,0.01198980025947094
0.31034579462889006,Acceleration_Y,-0.7167390635227762,3.439211755975055,1500,12.276000022888184,3.4884300231933594,3.4884300231933594,1500,0.3168876841547947,0.0,-0.10100000351667404,-0.08852522075176239,-1.0182033231472574,10.185185432434082,0.010124720633029938,-0.024246040731668472,0.0010657600359991193
0.31034579462889006,Acceleration_Y,-0.7167390635227762,3.4196337918323,1500,12.276000022888184,3.459444999694824,3.459444999694824,1500,0.3179957517257199,0.0,0.02800000086426735,-0.34692317247390747,-0.022892718574961224,7.701694011688232,-0.005861680023372173,-0.01891724020242691,0.003996599931269884
0.31034579462889006,Acceleration_Y,-0.7167390635227762,3.4201998940627414,1500,12.27299976348877,3.456894874572754,3.456894874572754,1500,0.31451538912557786,0.0,-0.3330000042915344,-0.016748014837503433,-0.42963025476690153,8.768781661987305,-0.005861680023372173,-0.015719961374998093,0.02477892115712166
0.31034579462889006,Acceleration_Y,-0.7167390635227762,3.405341012864364,1500,12.27299976348877,3.4381444454193115,3.4381444454193115,1500,0.3150681698473954,0.0,0.02800000086426735,-0.16748014092445374,-1.0756250968193612,9.342999458312988,-0.0500907227396965,0.009325399994850159,0.03410432115197182
0.31034579462889006,Acceleration_Y,-0.7167390635227762,3.407609900828905,1500,12.263999938964844,3.4185900688171387,3.4185900688171387,1500,0.3125019038366978,0.0,-0.22100000083446503,-0.10527323186397552,-1.2933492710804544,8.206526756286621,-0.032239239662885666,0.054620202630758286,0.020782319828867912
0.31034579462889006,Acceleration_Y,-0.7167390635227762,3.416887532314391,1500,12.263999938964844,3.4185900688171387,3.4185900688171387,1500,0.3091650606318538,0.0,-0.3440000116825104,0.4904775619506836,0.1517651030803122,8.826203346252441,0.0463605597615242,-0.07673472166061401,0.017851481214165688
0.31034579462889006,Acceleration_Y,-0.7167390635227762,3.4115840681000598,1500,12.277000427246094,3.4034574031829834,3.4034574031829834,1500,0.31025636583265986,0.0,0.09200000017881393,0.21772418916225433,-0.8220122953867517,9.974638938903809,0.016785720363259315,0.009591840207576752,0.0173186007887125
0.2983773091774463,Acceleration_Y,-0.7167390635227762,3.3727073135214245,1500,12.277000427246094,3.406867742538452,3.406867742538452,1500,0.3065258008032801,0.0,-0.31299999356269836,0.6077136397361755,0.039314145782033405,9.342999458312988,-0.013588440604507923,-0.013588440604507923,0.015719961374998093
0.2983773091774463,Acceleration_Y,-0.7167390635227762,3.3629483670047495,1500,12.263999938964844,3.4151833057403564,3.4151833057403564,1500,0.306114807344372,0.0,-0.16899999976158142,0.05981433764100075,-0.6066806813692651,9.778448104858398,-0.016519280150532722,0.009591840207576752,0.005062360316514969
0.2983773091774463,Acceleration_Y,0,3.3404048774184134,1500,12.263999938964844,3.4100732803344727,3.4100732803344727,1500,0.30710440978770426,0.0,0.09200000017881393,-0.25361278653144836,-0.13637669384479523,8.311800003051758,0.013854880817234516,0.021848080679774284,0.008526080287992954
0.2983773091774463,Acceleration_Y,0,3.336038918774565,1500,12.282999992370605,3.3710010051727295,3.3710010051727295,1500,0.3041198197065977,0.0,-0.3109999895095825,-0.06220691278576851,0.3086419701576233,8.732892990112305,0.01198980025947094,0.02397960051894188,-0.01198980025947094
0.2983773091774463,Acceleration_Y,0,3.3222394658091567,1500,12.282999992370605,3.360765218734741,3.360765218734741,1500,0.3038082091212315,0.0,-0.1469999998807907,0.46655184030532837,-0.550291895866394,9.426739692687988,0.0005328800179995596,-0.008259640075266361,-0.006394560448825359
0.2983773091774463,Acceleration_Y,0,3.306478537708358,1500,12.279000282287598,3.3392059803009033,3.3392059803009033,1500,0.3044888995103857,0.0,0.08100000023841858,-0.22490191459655762,0.46176669001579285,8.862092018127441,0.0231802798807621,0.0735374391078949,-0.005861680023372173
0.2983773091774463,Acceleration_Y,0,3.3060410579287565,1500,12.279000282287598,3.334089517593384,3.334089517593384,1500,0.3018562298413033,0.0,-0.2590000033378601,0.6962388753890991,-0.3445305824279785,8.964972496032715,-0.01065760012716055,-0.038100920617580414,-0.014920640736818314
0.2983773091774463,Acceleration_Y,0,3.310364585240197,1500,12.26300048828125,3.3212294578552246,3.3212294578552246,1500,0.2989162424133157,0.0,-0.3709999918937683,0.1004880890250206,-0.17705044150352478,8.618049621582031,-0.014121320098638535,-0.026111120358109474,0.003463720204308629
0.2983773091774463,Acceleration_Y,0,3.301776902926972,1500,12.26300048828125,3.304197311401367,3.304197311401367,1500,0.29995204296726075,0.0,0.03200000151991844,-0.49287015199661255,0.6531725525856018,9.723418235778809,-0.01705216057598591,0.005328800063580275,0.007993199862539768
0.2983773091774463,Acceleration_Y,0,3.298365870917304,1500,12.26200008392334,3.305630922317505,3.305630922317505,1500,0.300095941400994,0.0,0.04800000041723251,0.08613264560699463,-0.10288066416978836,9.209015846252441,-0.04582768306136131,-0.006927440408617258,0.03943312168121338
0.2983773091774463,Acceleration_Y,0,3.3088862071084666,1500,12.26200008392334,3.30903697013855,3.30903697013855,1500,0.29715326433836975,0.0,-0.3179999887943268,0.014355440624058247,0.2440425008535385,8.670686721801758,-0.010391159914433956,0.007193880155682564,0.02930840104818344
0.2983773091774463,Acceleration_Y,0,3.324018409888329,1500,12.265000343322754,3.299625873565674,3.299625873565674,1500,0.29411565772110304,0.0,-0.3569999933242798,0.9833477139472961,0.0502440445125103,10.197148323059082,0.06367915868759155,-0.1278911978006363,0.017585041001439095
0.2983773091774463,Acceleration_Y,0,3.3240327304597335,1500,12.265000343322754,3.2962188720703125,3.2962188720703125,1500,0.2955884216652923,0.0,0.03200000151991844,-0.5239735841751099,0.7728012204170227,9.333429336547852,0.00905896071344614,0.01705216057598591,0.027176881209015846
0.2983773091774463,Acceleration_Y,0,3.3277224362484357,1500,12.277000427246094,3.3062644004821777,3.3062644004821777,1500,0.2963644552184528,0.0,0.06300000101327896,0.5215809941291809,-0.08852522075176239,9.139630317687988,0.0213152002543211,-0.03623584285378456,0.00452948035672307
0.2983773091774463,Acceleration_Y,0,3.3466313802209333,1500,12.277000427246094,3.3233156204223633,3.3233156204223633,1500,0.29352779692164094,0.0,-0.3199999928474426,0.531151294708252,0.8589338660240173,10.244999885559082,0.018650799989700317,0.00905896071344614,0.013055560179054737
0.2983773091774463,Acceleration_Y,0,3.367507388538673,1500,12.27299976348877,3.322232723236084,3.322232723236084,1500,0.29100368236389795,0.0,-0.36399999260902405,0.6196765303611755,-0.5885730981826782,9.649249076843262,-0.015719961374998093,0.0500907227396965,0.0031972802244126797
0.2983773091774463,Acceleration_Y,0,3.3712224165033375,1500,12.27299976348877,3.3256421089172363,3.3256421089172363,1500,0.29324323105870065,0.0,0.026000000536441803,0.03588860109448433,0.239257350564003,9.340606689453125,0.018384359776973724,0.03623584285378456,-0.011723360046744347
0.2983773091774463,Acceleration_Y,0,3.375248032592157,1500,12.265999794006348,3.344188690185547,3.344188690185547,1500,0.29516470054383404,0.0,0.04100000113248825,0.10288066416978836,-0.009570294059813023,9.814336776733398,-0.006661000195890665,0.027709761634469032,0.005595240276306868
0.2983773091774463,Acceleration_Y,0,3.397112766900632,1500,12.265999794006348,3.366335391998291,3.366335391998291,1500,0.29246403322758513,0.0,-0.35100001096725464,0.12202125042676926,-0.15312470495700836,9.620537757873535,0.03596940264105797,0.08179708570241928,-0.01198980025947094
0.2983773091774463,Acceleration_Y,0,3.4093523293729935,1500,12.270999908447266,3.3694121837615967,3.3694121837615967,1500,0.2922381523458488,0.0,-0.22599999606609344,0.32299742102622986,-0.011962867341935635,9.651641845703125,0.003996599931269884,0.014387760311365128,-0.005062360316514969
0.2983773091774463,Acceleration_Y,0,3.414576354285163,1500,12.270999908447266,3.3745250701904297,3.3745250701904297,1500,0.29397094137261615,0.0,-0.00800000037997961,-0.1507321298122406,-0.17944301664829254,8.606086730957031,-0.010124720633029938,0.0002664400089997798,-0.010391159914433956
0.2983773091774463,Acceleration_Y,0,3.421902226339094,1500,12.279000282287598,3.395484685897827,3.395484685897827,1500,0.29479103552653363,0.0,-0.013000000268220901,0.239257350564003,0.019140588119626045,9.287970542907715,0.0026644000317901373,0.005062360316514969,-0.005861680023372173
0.2983773091774463,Acceleration_Y,0,3.43853342916817,1500,12.279000282287598,3.4074227809906006,3.4074227809906006,1500,0.2931587899752638,0.0,-0.34200000762939453,1.2226051092147827,0.10766580700874329,9.113312721252441,-0.04289684072136879,0.003463720204308629,0.02477892115712166
0.3191798897148834,Acceleration_Y,0,3.5462497643806516,1500,12.272000312805176,3.4122979640960693,3.4122979640960693,1500,0.29391188906182375,0.0,-0.1550000011920929,0.4641592502593994,-0.2320796251296997,8.866877555847168,-0.03703515976667404,0.05755104124546051,-0.0010657600359991193
0.3191798897148834,Acceleration_Y,0,3.5740444872169537,1500,12.272000312805176,3.4208199977874756,3.4208199977874756,1500,0.2965962531235304,0.0,0.06800000369548798,0.7105943560600281,-0.03828117623925209,10.319169044494629,0.0500907227396965,-0.11297056078910828,0.006927440408617258
0.3191798897148834,Acceleration_Y,0,3.6312593446665677,1500,12.274999618530273,3.436999797821045,3.436999797821045,1500,0.2957106238082607,0.0,-0.3310000002384186,0.44980382919311523,-0.18662072718143463,8.996076583862305,0.029574841260910034,-0.006661000195890665,-0.004263040143996477
0.3191798897148834,Acceleration_Y,0,3.6702911493220975,1500,12.274999618530273,3.5444061756134033,3.5444061756134033,1500,0.2984120592645766,0.0,-0.020999999716877937,0.33496028184890747,-0.03828117623925209,8.685041427612305,0.01332200039178133,-0.038100920617580414,-0.010924040339887142
0.3191798897148834,Acceleration_Y,0,3.703348036753726,1500,12.258999824523926,3.573838949203491,3.573838949203491,1500,0.3016771165304437,0.0,0.05900000035762787,0.08852522075176239,-0.24643507599830627,8.893196105957031,-0.013055560179054737,0.024246040731668472,-0.006661000195890665
0.3191798897148834,Acceleration_Y,0,3.745834064373786,1500,12.258999824523926,3.63002610206604,3.63002610206604,1500,0.3015742002402789,0.0,-0.3269999921321869,1.504928708076477,-0.7249497771263123,8.546272277832031,0.017585041001439095,0.03197279945015907,0.004263040143996477
0.3191798897148834,Acceleration_Y,0,3.76507915681725,1500,12.274999618530273,3.668860912322998,3.668860912322998,1500,0.30575089545037687,0.0,0.07199999690055847,0.6220691204071045,0.5933582186698914,8.271126747131348,0.030374161899089813,0.019183680415153503,0.013854880817234516
0.3191798897148834,Acceleration_Y,0,3.795440652808772,1500,12.274999618530273,3.702958106994629,3.702958106994629,1500,0.30641460681378463,0.0,-0.35100001096725464,0.6388171315193176,-0.6316394209861755,8.912336349487305,-0.005861680023372173,-0.003996599931269884,0.0018650800921022892
0.3191798897148834,Acceleration_Y,0,3.8023690319085213,1500,12.27400016784668,3.74357008934021,3.74357008934021,1500,0.31101761212885126,0.0,0.10300000011920929,0.11005838215351105,0.3062494099140167,8.888410568237305,0.011456920765340328,0.058083921670913696,0.006661000195890665
0.3191798897148834,Acceleration_Y,0,3.8179986276922517,1500,12.27400016784668,3.764026641845703,3.764026641845703,1500,0.3123413379632939,0.0,-0.3529999852180481,0.8852521777153015,-0.4258780777454376,8.342904090881348,-0.019450120627880096,-0.03250567987561226,0.00452948035672307
0.3191798897148834,Acceleration_Y,0,3.8152516553959277,1500,12.272000312805176,3.794093370437622,3.794093370437622,1500,0.31629909036973103,0.0,-0.026000000536441803,1.117331862449646,-0.0023925735149532557,9.898077011108398,0.010124720633029938,-0.03596940264105797,-0.0018650800921022892
0.3191798897148834,Acceleration_Y,0,3.8021614502939554,1500,12.272000312805176,3.8009111881256104,3.8009111881256104,1500,0.32098721493819926,0.0,-0.03500000014901161,0.4163077771663666,-0.043066322803497314,9.331036567687988,-0.03357144072651863,-0.013854880817234516,0.020782319828867912
0.3191798897148834,Acceleration_Y,0,3.807234000001634,1500,12.256999969482422,3.8166935443878174,3.8166935443878174,1500,0.3198762079488954,0.0,-0.3569999933242798,1.0957986116409302,-0.18662072718143463,8.598909378051758,-0.0809977650642395,0.05302156135439873,0.02238096110522747
0.3191798897148834,Acceleration_Y,0,3.77484254332044,1500,12.256999969482422,3.813288927078247,3.813288927078247,1500,0.32604933917181483,0.0,0.0430000014603138,0.6986314654350281,0.44980382919311523,10.350273132324219,0.07220524549484253,-0.14574268460273743,0.015187080949544907
0.3191798897148834,Acceleration_Y,0,3.763410771965186,1500,12.267999649047852,3.8013758659362793,3.8013758659362793,1500,0.32623546314856494,0.0,-0.32199999690055847,0.5718250870704651,-0.34692317247390747,8.395540237426758,-0.012522680684924126,0.014121320098638535,-0.005062360316514969
0.3191798897148834,Acceleration_Y,0,3.744670682727895,1500,12.267999649047852,3.806487560272217,3.806487560272217,1500,0.3268579445079841,0.0,-0.27799999713897705,0.6316394209861755,-0.7871567010879517,8.728108406066895,-0.010124720633029938,-0.008792520500719547,0.0029308400116860867
0.3191798897148834,Acceleration_Y,0,3.708477581662838,1500,12.277000427246094,3.773472547531128,3.773472547531128,1500,0.33086364549975705,0.0,0.04100000113248825,0.5024404525756836,0.3014642596244812,9.106134414672852,-0.03703515976667404,0.05675172060728073,-0.0031972802244126797
0.3191798897148834,Acceleration_Y,0,3.688484838198693,1500,12.277000427246094,3.7615363597869873,3.7615363597869873,1500,0.3302260099562685,0.0,-0.3709999918937683,-0.1698727160692215,0.7464829087257385,9.675567626953125,-0.019983001053333282,0.047692760825157166,0.009858280420303345
0.3191798897148834,Acceleration_Y,0,3.6532785232788925,1500,12.256999969482422,3.7434921264648438,3.7434921264648438,1500,0.3322575177657139,0.0,-0.09000000357627869,0.6483874320983887,-0.30385681986808777,10.228251457214355,0.020782319828867912,0.017851481214165688,-0.006661000195890665
0.3191798897148834,Acceleration_Y,0,3.615640114294091,1500,12.256999969482422,3.70774245262146,3.70774245262146,1500,0.3342831522863392,0.0,-0.03200000151991844,-0.6220691204071045,0.02392573468387127,8.424251556396484,-0.015187080949544907,0.05914968252182007,0.0005328800179995596
0.3191798897148834,Acceleration_Y,0,3.5934857514418113,1500,12.26099967956543,3.686814546585083,3.686814546585083,1500,0.3321795061748247,0.0,-0.34200000762939453,0.15551728010177612,0.7799789905548096,8.797492980957031,0.0026644000317901373,0.039966002106666565,-0.01198980025947094
0.3191798897148834,Acceleration_Y,0,3.554072593576718,1500,12.26099967956543,3.6510534286499023,3.6510534286499023,1500,0.333927810149928,0.0,0.05700000002980232,-0.2512202262878418,0.11723610013723373,10.680448532104492,0.03410432115197182,-0.046094123274087906,0.004795920103788376
0.3191798897148834,Acceleration_Y,0,3.5363294763649864,1500,12.265000343322754,3.6147680282592773,3.6147680282592773,1500,0.3310358396193424,0.0,-0.3490000069141388,-0.6459948420524597,0.5120107531547546,9.182697296142578,-0.01198980025947094,-0.016519280150532722,0.004795920103788376
0.3191798897148834,Acceleration_Y,0,3.5058671179840593,1500,12.265000343322754,3.592622995376587,3.592622995376587,1500,0.33133725042555096,0.0,0.05400000140070915,-0.4832998514175415,0.6148914098739624,8.661115646362305,-0.05168936029076576,0.00452948035672307,0.030374161899089813
0.3191798897148834,Acceleration_Y,0,3.4947883318554465,1500,12.269000053405762,3.5528979301452637,3.5528979301452637,1500,0.3280307440801378,0.0,-0.38999998569488525,-0.689061164855957,-0.679490864276886,8.326155662536621,-0.019450120627880096,0.033837880939245224,0.025311801582574844
0.3191798897148834,Acceleration_Y,0,3.471521288827168,1500,12.269000053405762,3.534153699874878,3.534153699874878,1500,0.32817663771973266,0.0,0.10499999672174454,0.3445305824279785,0.34692317247390747,10.682840347290039,0.0231802798807621,-0.06634356081485748,0.006128120236098766
0.3191798897148834,Acceleration_Y,0,3.4668994883184645,1500,12.270000457763672,3.5037667751312256,3.5037667751312256,1500,0.324980370362954,0.0,-0.35100001096725464,0.06459948420524597,-0.8996076583862305,9.517657279968262,0.012256240472197533,-0.020782319828867912,0.0231802798807621
0.3191798897148834,Acceleration_Y,0,3.449851562780682,1500,12.270000457763672,3.493541717529297,3.493541717529297,1500,0.3252769977655388,0.0,0.04800000041723251,0.06699205935001373,-0.3660637438297272,9.180304527282715,-0.012256240472197533,0.007460320368409157,0.02051588147878647
0.3191798897148834,Acceleration_Y,0,3.450508744260959,1500,12.265999794006348,3.4702558517456055,3.4702558517456055,1500,0.32236152789540007,0.0,-0.2759999930858612,-0.057421762496232986,0.5144032835960388,8.019906044006348,0.012522680684924126,0.016519280150532722,0.023713160306215286
0.3191798897148834,Acceleration_Y,0,3.446832025476869,1500,12.265999794006348,3.4651448726654053,3.4651448726654053,1500,0.32116303286970194,0.0,-0.13099999725818634,-0.26079049706459045,0.4282706677913666,9.603790283203125,0.018384359776973724,0.04129820317029953,0.023446720093488693
0.3191798897148834,Acceleration_Y,0,3.4401943245052564,1500,12.272000312805176,3.4480910301208496,3.4480910301208496,1500,0.32141410700899814,0.0,0.04100000113248825,0.33017513155937195,-0.9331036806106567,9.819121360778809,0.01811792142689228,0.0029308400116860867,0.007460320368409157
0.3191798897148834,Acceleration_Y,0,3.4528728746671375,1500,12.272000312805176,3.449795722961426,3.449795722961426,1500,0.31780601241821993,0.0,-0.375,0.6292468309402466,-0.5455067753791809,9.874151229858398,-0.004795920103788376,0.04183107987046242,0.012789120897650719
0.3191798897148834,Acceleration_Y,0,3.4529393650599394,1500,12.267999649047852,3.445263147354126,3.445263147354126,1500,0.31783387993818857,0.0,0.05900000035762787,0.44262608885765076,0.36845633387565613,10.400517463684082,0.025578241795301437,0.009591840207576752,-0.006128120236098766
0.3191798897148834,Acceleration_Y,0,3.466876009585608,1500,12.267999649047852,3.4384477138519287,3.4384477138519287,1500,0.31558888230800713,0.0,-0.2630000114440918,0.4761221408843994,1.0359842777252197,9.342999458312988,0.0037301601842045784,-0.07034016400575638,0.01198980025947094
0.3191798897148834,Acceleration_Y,0,3.4924481545464423,1500,12.248000144958496,3.451554298400879,3.451554298400879,1500,0.3116414717467683,0.0,-0.34599998593330383,0.9905254244804382,-0.033496029675006866,10.118193626403809,-0.013055560179054737,-0.06021544337272644,0.01065760012716055
0.3191798897148834,Acceleration_Y,0,3.500636326457208,1500,12.248000144958496,3.451554298400879,3.451554298400879,1500,0.31277846600141995,0.0,0.07199999690055847,0.5861805081367493,-0.2703607976436615,9.089386940002441,-0.08153064548969269,-0.058083921670913696,0.014121320098638535
0.3191798897148834,Acceleration_Y,0,3.5318831222639613,1500,12.251999855041504,3.4645934104919434,3.4645934104919434,1500,0.309489993586752,0.0,-0.30300000309944153,-0.21772418916225433,0.18422816693782806,8.574983596801758,-0.060748323798179626,0.058883242309093475,0.021048760041594505
0.3191798897148834,Acceleration_Y,0,3.553699899800126,1500,12.251999855041504,3.4901182651519775,3.4901182651519775,1500,0.30894396515218286,0.0,-0.23399999737739563,-0.19379845261573792,0.6603502631187439,9.608574867248535,0.08179708570241928,-0.11776648461818695,0.01625283993780613
0.3191798897148834,Acceleration_Y,0,3.5667205397584945,1500,12.263999938964844,3.4986467361450195,3.4986467361450195,1500,0.31091690199855637,0.0,0.09600000083446503,-0.3780266046524048,-0.6124988198280334,9.936357498168945,0.0005328800179995596,-0.0026644000317901373,0.003463720204308629
0.3191798897148834,Acceleration_Y,0,3.595746712293353,1500,12.263999938964844,3.529306650161743,3.529306650161743,1500,0.3090872438092773,0.0,-0.3490000069141388,0.8110824227333069,0.36845633387565613,9.201837539672852,0.011723360046744347,-0.01811792142689228,-0.006927440408617258
0.3191798897148834,Acceleration_Y,0,3.6054245813257038,1500,12.279000282287598,3.5523831844329834,3.5523831844329834,1500,0.31147661943282706,0.0,0.061000000685453415,0.555077075958252,-0.14355440437793732,8.823811531066895,-0.01065760012716055,-0.014121320098638535,0.0005328800179995596
0.3191798897148834,Acceleration_Y,0,3.6327951332638087,1500,12.279000282287598,3.5643210411071777,3.5643210411071777,1500,0.30979949904325965,0.0,-0.3569999933242798,0.6579577326774597,-0.7225571870803833,10.022490501403809,-0.015719961374998093,0.030640600249171257,-0.015719961374998093
0.3191798897148834,Acceleration_Y,0,3.6406172690652836,1500,12.277999877929688,3.5947253704071045,3.5947253704071045,1500,0.3122621587993375,0.0,0.00800000037997961,0.4641592502593994,0.06699205935001373,10.721121788024902,0.009591840207576752,0.05435376241803169,-0.005328800063580275
0.3191798897148834,Acceleration_Y,0,3.6561723978905296,1500,12.277999877929688,3.6032519340515137,3.6032519340515137,1500,0.31266785194584606,0.0,-0.19499999284744263,1.1412575244903564,-0.8924298882484436,9.551153182983398,0.017851481214165688,-0.018384359776973724,-0.036502283066511154
0.3191798897148834,Acceleration_Y,0,3.6703042112276734,1500,12.270999908447266,3.6318750381469727,3.6318750381469727,1500,0.3128448775017663,0.0,-0.19300000369548798,0.6053211092948914,-0.3517082929611206,9.302326202392578,0.0026644000317901373,0.07034016400575638,0.0037301601842045784
0.3191798897148834,Acceleration_Y,0,3.6759471138369992,1500,12.270999908447266,3.6386921405792236,3.6386921405792236,1500,0.31464863565055873,0.0,-0.0020000000949949026,0.14355440437793732,-0.15551728010177612,9.256866455078125,-0.029841281473636627,0.02824264019727707,-0.013055560179054737
0.3191798897148834,Acceleration_Y,0,3.6885759178544117,1500,12.267999649047852,3.654841661453247,3.654841661453247,1500,0.3144441861994928,0.0,-0.30000001192092896,0.138769268989563,0.7393051981925964,9.902861595153809,0.028509080410003662,-0.034903641790151596,-0.00452948035672307
0.3191798897148834,Acceleration_Y,0,3.6884136546465958,1500,12.267999649047852,3.6684727668762207,3.6684727668762207,1500,0.316641223553792,0.0,0.061000000685453415,0.14116182923316956,-0.35410088300704956,9.866972923278809,0.003463720204308629,0.011190480552613735,-0.012789120897650719
0.3191798897148834,Acceleration_Y,0,3.699834023983321,1500,12.269000053405762,3.6738839149475098,3.6738839149475098,1500,0.31582660591750994,0.0,-0.33799999952316284,0.45458897948265076,-0.478514701128006,10.118193626403809,-0.05435376241803169,0.003996599931269884,0.02238096110522747
0.3191798897148834,Acceleration_Y,0,3.692409870669493,1500,12.269000053405762,3.6875159740448,3.6875159740448,1500,0.318778577170899,0.0,0.04600000008940697,-0.6292468309402466,0.2512202262878418,8.680256843566895,0.06714288145303726,-0.052755121141672134,0.02824264019727707
0.3191798897148834,Acceleration_Y,0,3.6948830750840815,1500,12.279000282287598,3.6871109008789062,3.6871109008789062,1500,0.31894172522001146,0.0,-0.20399999618530273,0.7632309198379517,-0.2631830871105194,9.264044761657715,0.017851481214165688,-0.042363960295915604,0.0031972802244126797
0.3191798897148834,Acceleration_Y,0,3.6937782407531565,1500,12.279000282287598,3.697343587875366,3.697343587875366,1500,0.3193069371474429,0.0,-0.2150000035762787,0.18662072718143463,-0.49287015199661255,7.579672813415527,0.020249441266059875,-0.04129820317029953,0.0018650800921022892
0.3191798897148834,Acceleration_Y,0,3.682177396075852,1500,12.281000137329102,3.6911227703094482,3.6911227703094482,1500,0.3216998273774422,0.0,0.05900000035762787,0.47372955083847046,-0.6364245414733887,9.314289093017578,-0.04023244231939316,0.028509080410003662,0.004795920103788376
0.3303458129247637,Acceleration_Y,0,3.734782815686749,1500,12.281000137329102,3.692828416824341,3.692828416824341,1500,0.32124484107710294,0.0,-0.34599998593330383,0.5742176175117493,0.12680639326572418,10.979519844055176,-0.015187080949544907,0.012256240472197533,-0.013055560179054737
0.3303458129247637,Acceleration_Y,0,3.7339326632465806,1500,12.277999877929688,3.6919262409210205,3.6919262409210205,1500,0.32372482258543606,0.0,0.08100000023841858,0.49287015199661255,-0.6531725525856018,8.625227928161621,0.010391159914433956,0.019450120627880096,-0.002397960051894188
0.3303458129247637,Acceleration_Y,0,3.754954367396172,1500,12.277999877929688,3.681694507598877,3.681694507598877,1500,0.32287323389060335,0.0,-0.375,0.49287015199661255,-0.2560053765773773,8.740071296691895,0.009858280420303345,-0.010924040339887142,-0.019183680415153503
0.3303458129247637,Acceleration_Y,0,3.759285493455254,1500,12.276000022888184,3.7322449684143066,3.7322449684143066,1500,0.3253026932504098,0.0,0.09799999743700027,0.23447220027446747,0.09331036359071732,8.445784568786621,0.024246040731668472,0.06048188358545303,-0.0026644000317901373
0.3303458129247637,Acceleration_Y,0,3.7759656647721243,1500,12.276000022888184,3.7322449684143066,3.7322449684143066,1500,0.32460672574353355,0.0,-0.3569999933242798,-0.16030243039131165,1.1867164373397827,10.661307334899902,-0.04396260157227516,-0.0002664400089997798,-0.014387760311365128
0.3303458129247637,Acceleration_Y,0,3.7797495377927333,1500,12.26300048828125,3.753840684890747,3.753840684890747,1500,0.3263737360073395,0.0,-0.029999999329447746,0.2129390388727188,-1.0790506601333618,9.886114120483398,0.036502283066511154,-0.029574841260910034,-0.02238096110522747
0.3303458129247637,Acceleration_Y,0,3.7854197003535126,1500,12.26300048828125,3.75724720954895,3.75724720954895,1500,0.327338657696244,0.0,-0.10100000351667404,0.679490864276886,-0.7536606788635254,9.529620170593262,-0.012522680684924126,-0.012522680684924126,0.006927440408617258
0.3303458129247637,Acceleration_Y,0,3.797287425871643,1500,12.26200008392334,3.7739710807800293,3.7739710807800293,1500,0.3264454025682332,0.0,-0.32199999690055847,0.689061164855957,0.5359364748001099,8.826203346252441,-0.0812642052769661,0.022114520892500877,0.014121320098638535
0.3303458129247637,Acceleration_Y,0,3.7908141649387774,1500,12.26200008392334,3.777377128601074,3.777377128601074,1500,0.3294428965508241,0.0,0.0430000014603138,-0.14355440437793732,1.0646952390670776,9.455450057983398,0.059682562947273254,-0.11456920206546783,0.02051588147878647
0.3303458129247637,Acceleration_Y,0,3.798128161447921,1500,12.277999877929688,3.784011125564575,3.784011125564575,1500,0.3288474404850542,0.0,-0.2849999964237213,0.19619102776050568,-1.4546847343444824,8.637189865112305,-0.007993199862539768,0.004263040143996477,0.002397960051894188
0.3303458129247637,Acceleration_Y,0,3.787707019440697,1500,12.277999877929688,3.7959482669830322,3.7959482669830322,1500,0.3315929077465976,0.0,0.029999999329447746,0.3636711835861206,0.8637190461158752,10.761795997619629,-0.007193880155682564,-0.035702962428331375,-0.0018650800921022892
0.3303458129247637,Acceleration_Y,0,3.778208539438545,1500,12.286999702453613,3.7884914875030518,3.7884914875030518,1500,0.33342472712045057,0.0,-0.08699999749660492,0.3445305824279785,-1.0431619882583618,8.053401947021484,0.004795920103788376,-0.012256240472197533,-0.004795920103788376
0.3303458129247637,Acceleration_Y,0,3.775704112683167,1500,12.286999702453613,3.7970242500305176,3.7970242500305176,1500,0.33281597086931597,0.0,-0.3569999933242798,0.46176669001579285,0.40434491634368896,10.106230735778809,0.004795920103788376,0.010924040339887142,0.0015986401122063398
0.3303458129247637,Acceleration_Y,0,3.7572406733682104,1500,12.260000228881836,3.786977767944336,3.786977767944336,1500,0.33537494750342645,0.0,0.04600000008940697,0.22729448974132538,-0.6436022520065308,9.079816818237305,0.02664400078356266,0.0029308400116860867,-0.01332200039178133
0.3303458129247637,Acceleration_Y,0,3.7575280817573375,1500,12.260000228881836,3.776761054992676,3.776761054992676,1500,0.3334053562173573,0.0,-0.35499998927116394,0.5766102075576782,0.7058091759681702,10.283281326293945,0.026910440996289253,0.0002664400089997798,-0.02504536136984825
0.3303458129247637,Acceleration_Y,0,3.7493376958861915,1500,12.272000312805176,3.7736401557922363,3.7736401557922363,1500,0.33334895360923544,0.0,-0.22300000488758087,0.28471624851226807,-0.1507321298122406,8.0055513381958,0.02930840104818344,0.040765322744846344,-0.007993199862539768
0.3303458129247637,Acceleration_Y,0,3.733818875780182,1500,12.272000312805176,3.7565956115722656,3.7565956115722656,1500,0.33514651043001553,0.0,0.024000000208616257,-0.08374007046222687,0.6938463449478149,9.342999458312988,-0.027976201847195625,0.0015986401122063398,-0.011723360046744347
0.3303458129247637,Acceleration_Y,0,3.7337669837384064,1500,12.272000312805176,3.7565956115722656,3.7565956115722656,1500,0.33322653377788214,0.0,-0.3330000042915344,0.555077075958252,0.7823715209960938,8.572590827941895,0.017851481214165688,-0.03756804019212723,0.007993199862539768
0.3303458129247637,Acceleration_Y,0,3.7182725727843886,1500,12.272000312805176,3.7480735778808594,3.7480735778808594,1500,0.3347689643109317,0.0,0.06300000101327896,-0.7943344116210938,1.1867164373397827,9.342999458312988,-0.02930840104818344,0.016519280150532722,0.012522680684924126
0.3303458129247637,Acceleration_Y,0,3.719549111902695,1500,12.276000022888184,3.7322449684143066,3.7322449684143066,1500,0.3327086933618747,0.0,-0.35100001096725464,0.27275338768959045,-0.8374007344245911,8.445784568786621,-0.04396260157227516,0.07247168570756912,0.033038560301065445
0.3303458129247637,Acceleration_Y,0,3.706484901585022,1500,12.276000022888184,3.7322449684143066,3.7322449684143066,1500,0.33396536713954117,0.0,-0.00800000037997961,0.11723610013723373,0.4904775619506836,10.804862022399902,0.08552724123001099,-0.07540252059698105,0.034637201577425
0.3303458129247637,Acceleration_Y,0,3.6955145257600237,1500,12.267999649047852,3.716181755065918,3.716181755065918,1500,0.3347568748531995,0.0,0.024000000208616257,-0.24882765114307404,0.9378888010978699,7.495932579040527,0.020249441266059875,0.022114520892500877,0.05062360316514969
0.3303458129247637,Acceleration_Y,0,3.6956678947876047,1500,12.267999649047852,3.7178854942321777,3.7178854942321777,1500,0.33280904567219555,0.0,-0.33799999952316284,0.4450186789035797,0.6244617104530334,10.134941101074219,0.005062360316514969,-0.028509080410003662,0.02238096110522747
0.3303458129247637,Acceleration_Y,0,3.6796673468600365,1500,12.27299976348877,3.705764055252075,3.705764055252075,1500,0.33463817195244805,0.0,0.07599999755620956,0.7608383893966675,-0.5766102075576782,9.520050048828125,0.00905896071344614,-0.01332200039178133,0.024512480944395065
0.3303458129247637,Acceleration_Y,0,3.680844087026998,1500,12.27299976348877,3.6938319206237793,3.6938319206237793,1500,0.33270941683612,0.0,-0.35100001096725464,-0.09331036359071732,0.5885730981826782,9.756915092468262,-0.015453520230948925,0.012256240472197533,0.021048760041594505
0.3303458129247637,Acceleration_Y,0,3.664631001562204,1500,12.274999618530273,3.6944339275360107,3.6944339275360107,1500,0.3346365287903628,0.0,0.07000000029802322,0.11005838215351105,0.34692317247390747,10.800076484680176,-0.01625283993780613,-0.013055560179054737,0.027709761634469032
0.3303458129247637,Acceleration_Y,0,3.6635977353357196,1500,12.274999618530273,3.6773853302001953,3.6773853302001953,1500,0.3331778021894917,0.0,-0.20800000429153442,-0.08374007046222687,-0.15551728010177612,8.756818771362305,-0.005328800063580275,0.025578241795301437,0.028775520622730255
0.3303458129247637,Acceleration_Y,0,3.662696942791523,1500,12.265999794006348,3.679799795150757,3.679799795150757,1500,0.331809074929316,0.0,-0.2370000034570694,-0.14833955466747284,0.11245095729827881,8.763997077941895,-0.0463605597615242,-0.012256240472197533,0.01065760012716055
0.3303458129247637,Acceleration_Y,0,3.6537155412907563,1500,12.265999794006348,3.662763833999634,3.662763833999634,1500,0.33275565821499137,0.0,0.04600000008940697,-0.22968704998493195,0.7058091759681702,9.496124267578125,0.005062360316514969,-0.009591840207576752,0.03010772168636322
0.3303458129247637,Acceleration_Y,0,3.659246109009168,1500,12.277000427246094,3.6626384258270264,3.6626384258270264,1500,0.33065336603988627,0.0,-0.32199999690055847,0.07656235247850418,0.20576132833957672,9.962676048278809,0.01971656084060669,-0.009858280420303345,0.0002664400089997798
0,Acceleration_Y,0,2.051946378535234,1500,12.277000427246094,3.660933494567871,3.660933494567871,1500,0.33122605041232134,0.0,0.04600000008940697,-0.13637669384479523,0.49765530228614807,9.357355117797852,-0.048492081463336945,-0.003463720204308629,0.02477892115712166
0,Acceleration_Y,0,1.581618579958342,1500,12.282999992370605,3.6524863243103027,3.6524863243103027,1500,0.32912500913060105,0.0,-0.36800000071525574,0.02631830796599388,-0.6723131537437439,8.529524803161621,0.03330500051379204,-0.018384359776973724,0.024246040731668472
0,Acceleration_Y,0,0.8342847568489895,1500,12.282999992370605,3.657604455947876,3.657604455947876,1500,0.3302707331568296,0.0,0.10499999672174454,0.6699205636978149,-0.22250933945178986,7.665805339813232,0.018650799989700317,-0.07433675974607468,0.018384359776973724
0,Acceleration_Y,0,0.28760331211821916,1500,12.277999877929688,2.049743890762329,2.049743890762329,1500,0.2899741619672163,0.0,-0.2759999930858612,-0.4282706677913666,-0.03588860109448433,10.111015319824219,-0.0077267601154744625,0.00452948035672307,0.016785720363259315
0,Acceleration_Y,0,0.0,1500,12.277999877929688,1.5807925462722778,1.5807925462722778,1500,0.2610208180787068,0.0,-0.2669999897480011,-1.5240693092346191,-1.1938941478729248,8.852521896362305,-0.04715988039970398,0.06048188358545303,0.019183680415153503
0,Acceleration_Y,0,0.0,1500,12.244999885559082,0.8333402276039124,0.8333402276039124,1500,0.22164064436639422,0.0,0.03700000047683716,-1.088620901107788,-0.7895492315292358,9.788018226623535,-0.01332200039178133,0.007460320368409157,0.005595240276306868
0,Acceleration_Y,0,0.0,1500,12.244999885559082,0.2857166528701782,0.2857166528701782,1500,0.16382710326146688,0.0,0.0430000014603138,-0.8517561554908752,-0.1818355917930603,9.682744979858398,-0.00905896071344614,-0.006661000195890665,-0.014387760311365128
0,Acceleration_Y,0,0.0,1500,12.258999824523926,0.0,0.0,1500,0.0929616573901293,0.0,-0.125,-0.6842760443687439,-0.1004880890250206,9.752129554748535,0.0002664400089997798,-0.012256240472197533,0.002397960051894188
0,Acceleration_Y,0,0.0,1500,12.258999824523926,0.0,0.0,1500,0.04352849421482688,0.0,-0.01899999938905239,-0.4067375063896179,-0.07416977733373642,9.345392227172852,0.0010657600359991193,-0.0029308400116860867,-0.0013322000158950686
0,Acceleration_Y,0,0.0,1500,12.25100040435791,0.0,0.0,1500,0.019725844252602837,0.0,-0.006000000052154064,0.4474112391471863,-0.33017513155937195,9.493731498718262,-0.0005328800179995596,-0.014121320098638535,-0.0002664400089997798
0,Acceleration_Y,0,0.0,1500,12.25100040435791,0.0,0.0,1500,0.010695211244322106,0.0,0.0,0.19140587747097015,-0.28710880875587463,9.271222114562988,0.0002664400089997798,0.0031972802244126797,0.0005328800179995596
0,Acceleration_Y,0,0.0,1500,12.243000030517578,0.0,0.0,1500,0.006809243489115134,0.0,0.0,0.2512202262878418,-0.2129390388727188,9.280792236328125,-0.0013322000158950686,0.0015986401122063398,0.0015986401122063398
0,Acceleration_Y,0,0.0,1500,12.243000030517578,0.0,0.0,1500,0.00482271177453703,0.0,0.0,0.2201167643070221,-0.0813474953174591,9.445879936218262,0.0018650800921022892,-0.002397960051894188,0.0
0,Acceleration_Y,0,0.0,1500,12.256999969482422,0.0,0.0,1500,0.0036630821903834623,0.0,0.0,0.277538537979126,-0.12202125042676926,9.472198486328125,0.0015986401122063398,-0.0007993200561031699,-0.0002664400089997798
0,Acceleration_Y,0,0.0,1500,12.256999969482422,0.0,0.0,1500,0.002918913532798363,0.0,0.0,0.2440425008535385,-0.13398411870002747,9.374102592468262,-0.0002664400089997798,0.0013322000158950686,-0.0005328800179995596
0,Acceleration_Y,0,0.0,1500,12.241999626159668,0.0,0.0,1500,0.0024074391339754583,0.0,0.0,0.2895013988018036,-0.07177720218896866,9.431524276733398,0.0005328800179995596,0.0007993200561031699,0.0002664400089997798
0,Acceleration_Y,0,0.0,1500,12.241999626159668,0.0,0.0,1500,0.002037403654091063,0.0,0.0,0.265575647354126,-0.12919896841049194,9.357355117797852,-0.0005328800179995596,-0.0013322000158950686,-0.0005328800179995596
0,Acceleration_Y,0,0.0,1500,12.26200008392334,0.0,0.0,1500,0.0017589139874597142,0.0,0.0,0.26079049706459045,-0.07656235247850418,9.400421142578125,-0.0002664400089997798,-0.0005328800179995596,-0.0002664400089997798
0,Acceleration_Y,0,0.0,1500,12.26200008392334,0.0,0.0,1500,0.0015426774597858527,0.0,0.0,0.27275338768959045,-0.09809551388025284,9.295147895812988,-0.0005328800179995596,0.0005328800179995596,-0.0002664400089997798
0,Acceleration_Y,0,0.0,1500,12.246000289916992,0.0,0.0,1500,0.0013704886139205021,0.0,0.0,0.22490191459655762,-0.1196286752820015,9.342999458312988,0.0,0.0005328800179995596,0.0
0,Acceleration_Y,0,0.0,1500,12.246000289916992,0.0,0.0,1500,0.001230496015899235,0.0,0.0,0.2966791093349457,-0.06220691278576851,9.438702583312988,0.0002664400089997798,0.0,0.0
0,Acceleration_Y,0,0.0,1500,12.263999938964844,0.0,0.0,1500,0.001114682858687068,0.0,0.0,0.2631830871105194,-0.09809551388025284,9.371710777282715,-0.0007993200561031699,0.0002664400089997798,0.0010657600359991193
0,Acceleration_Y,0,0.0,1500,12.263999938964844,0.0,0.0,1500,0.0010174486043891219,0.0,0.0,0.27993109822273254,-0.07416977733373642,9.393243789672852,0.0,0.0005328800179995596,0.0
